timestamp,ref_timestamp,ref_lat,ref_lon,x,y,z,delta_xy[0],delta_xy[1],delta_z,vx,vy,vz,z_deriv,delta_vxy[0],delta_vxy[1],delta_vz,ax,ay,az,heading,delta_heading,ref_alt,dist_bottom,eph,epv,evh,evv,vxy_max,vz_max,hagl_min,hagl_max,xy_valid,z_valid,v_xy_valid,v_z_valid,xy_reset_counter,z_reset_counter,vxy_reset_counter,vz_reset_counter,heading_reset_counter,xy_global,z_global,dist_bottom_valid
615353198,167894030,36.204817999999996,138.25291959999998,-0.27983886,0.18408813,-2.8936362,-0.039897293,0.04249571,0.0,0.0061675487,-0.0033848714,-0.012934135,-0.01116185,-0.038354572,0.054698005,-0.03981606,-0.0035868154,-0.015368213,0.03168165,-2.4490294,0.0009503523,48.948917,0.1,0.46744683,0.399478,0.14700958,0.10808412,inf,inf,inf,inf,1,1,1,1,2,0,2,1,3,1,1,1
615363196,167894030,36.204817999999996,138.25291959999998,-0.2801097,0.18446094,-2.8943343,-0.039897293,0.04249571,0.0,0.002932982,-0.0021459407,-0.011891352,-0.01070966,-0.038354572,0.054698005,-0.03981606,-0.6297016,0.21147655,0.25426853,-2.4490125,0.0009503523,48.948917,0.1,0.46818754,0.4001785,0.14745343,0.10828035,inf,inf,inf,inf,1,1,1,1,2,0,2,1,3,1,1,1
615453180,167894030,36.204817999999996,138.25291959999998,-0.28199935,0.18733583,-2.9006522,-0.039897293,0.04249571,0.0,0.00864594,-0.00433492,-0.015894646,-0.019597057,-0.038354572,0.054698005,-0.03981606,-0.0021917007,-0.2733427,0.4063457,-2.4484925,0.0009503523,48.948917,0.1,0.47504845,0.40129125,0.15148042,0.10944851,inf,inf,inf,inf,1,1,1,1,2,0,2,1,3,1,1,1
615553162,167894030,36.204817999999996,138.25291959999998,-0.284189,0.18955149,-2.9067864,-0.039897293,0.04249571,0.0,0.0063512577,0.001343259,-0.020164011,-0.027592495,-0.038354572,0.054698005,-0.03981606,0.77049035,-0.022304852,-0.095349334,-2.448432,0.0009503523,48.948917,0.1,0.46790662,0.39914337,0.14763427,0.10822686,inf,inf,inf,inf,1,1,1,1,2,0,2,1,3,1,1,1
615653145,167894030,36.204817999999996,138.25291959999998,-0.28874803,0.19014916,-2.9129734,-0.039897293,0.04249571,0.0,0.0038521055,-0.0020271302,-0.01503656,-0.025607472,-0.038354572,0.054698005,-0.03981606,-0.5036072,0.5988403,0.56021494,-2.4487615,0.0009503523,48.948917,0.1,0.47556603,0.40096173,0.15208499,0.10958736,inf,inf,inf,inf,1,1,1,1,2,0,2,1,3,1,1,1
615753127,167894030,36.204817999999996,138.25291959999998,-0.2920345,0.19107904,-2.9174302,-0.039897293,0.04249571,0.0,0.0076936167,-0.004245708,-0.023845008,-0.035297025,-0.038354572,0.054698005,-0.03981606,0.49622494,-1.2698706,0.39294386,-2.4489176,0.0009503523,48.948917,0.1,0.46708807,0.39797705,0.14653881,0.107807614,inf,inf,inf,inf,1,1,1,1,2,0,2,1,3,1,1,1
615853109,167894030,36.204817999999996,138.25291959999998,-0.29629377,0.19599994,-2.9212651,-0.039897293,0.04249571,0.0,0.0026656804,0.004749972,-0.021096546,-0.032646626,-0.038354572,0.054698005,-0.03981606,0.25815338,0.8571013,0.4846282,-2.449109,0.0009503523,48.948917,0.10318136,0.4746585,0.4024015,0.15103623,0.10947149,inf,inf,inf,inf,1,1,1,1,2,0,2,1,3,1,1,1
615953094,167894030,36.204817999999996,138.25291959999998,-0.2993756,0.19943391,-2.923741,-0.039897293,0.04249571,0.0,-0.002081004,0.0054943543,-0.02945501,-0.039654214,-0.038354572,0.054698005,-0.03981606,-0.36171243,1.1295894,-0.8696695,-2.4492955,0.0009503523,48.948917,0.10106397,0.46648774,0.39951372,0.14586446,0.10778418,inf,inf,inf,inf,1,1,1,1,2,0,2,1,3,1,1,1
616053075,167894030,36.204817999999996,138.25291959999998,-0.30143955,0.20076889,-2.927225,-0.039897293,0.04249571,0.0,0.00058903696,-0.0020676877,-0.025064252,-0.03500014,-0.038354572,0.054698005,-0.03981606,-0.8030369,-0.5257422,-1.3855143,-2.449393,0.0009503523,48.948917,0.102442265,0.4739989,0.40131754,0.15031098,0.109152585,inf,inf,inf,inf,1,1,1,1,2,0,2,1,3,1,1,1
616153062,167894030,36.204817999999996,138.25291959999998,-0.30240068,0.20213416,-2.9296691,-0.039897293,0.04249571,0.0,0.0059245103,0.0014667399,-0.02475103,-0.03333727,-0.038354572,0.054698005,-0.03981606,0.24316782,0.085768975,0.3639585,-2.449592,0.0009503523,48.948917,0.104953766,0.46607655,0.39858243,0.1454775,0.107563436,inf,inf,inf,inf,1,1,1,1,2,0,2,1,3,1,1,1
616253054,167894030,36.204817999999996,138.25291959999998,-0.3022456,0.20447367,-2.9323742,-0.039897293,0.04249571,0.0,0.0046510366,-0.0011303985,-0.024531605,-0.032073896,-0.038354572,0.054698005,-0.03981606,0.26584998,-0.97598636,0.22017269,-2.4497597,0.0009503523,48.948917,0.10523844,0.47355342,0.40036792,0.14994265,0.10892997,inf,inf,inf,inf,1,1,1,1,2,0,2,1,3,1,1,1
616353023,167894030,36.204817999999996,138.25291959999998,-0.3020042,0.20621815,-2.93482,-0.039897293,0.04249571,0.0,0.0016725897,0.005600816,-0.022062518,-0.028476829,-0.038354572,0.054698005,-0.03981606,-0.5219407,0.29333383,-0.12120027,-2.4497762,0.0009503523,48.948917,0.10515404,0.46693242,0.3985335,0.14673151,0.107914664,inf,inf,inf,inf,1,1,1,1,2,0,2,1,3,1,1,1
616453006,167894030,36.204817999999996,138.25291959999998,-0.30328822,0.20740886,-2.9375012,-0.039897293,0.04249571,0.0,-0.002005931,0.003132179,-0.03173133,-0.037205234,-0.038354572,0.054698005,-0.03981606,-0.5219817,1.0820984,-2.3292315,-2.450045,0.0009503523,48.948917,0.1060884,0.47451818,0.40032408,0.1511747,0.10927371,inf,inf,inf,inf,1,1,1,1,2,0,2,1,3,1,1,1
616552987,167894030,36.204817999999996,138.25291959999998,-0.30367294,0.20817731,-2.9390903,-0.039897293,0.04249571,0.0,0.0012881196,0.010507063,-0.023209995,-0.026711605,-0.038354572,0.054698005,-0.03981606,-2.8920257,1.4249238,3.239472,-2.4502587,0.0009503523,48.948917,0.10999632,0.46620864,0.39999947,0.14587556,0.10783391,inf,inf,inf,inf,1,1,1,1,2,0,2,1,3,1,1,1
616652969,167894030,36.204817999999996,138.25291959999998,-0.3042257,0.20798706,-2.9389822,-0.039897293,0.04249571,0.0,0.0047544413,0.0031906879,-0.03273592,-0.033159558,-0.038354572,0.054698005,-0.03981606,2.926156,1.1283764,-4.4558644,-2.4508362,0.0009503523,48.948917,0.11123133,0.4737191,0.40180972,0.15024328,0.10920481,inf,inf,inf,inf,1,1,1,1,2,0,2,1,3,1,1,1
616752952,167894030,36.204817999999996,138.25291959999998,-0.30423492,0.20751539,-2.9395106,-0.039897293,0.04249571,0.0,0.016252914,0.0027327235,-0.040031385,-0.03781584,-0.038354572,0.054698005,-0.03981606,4.517816,2.3506708,-1.3099788,-2.451576,0.0009503523,48.948917,0.11795235,0.46615613,0.399311,0.14592484,0.107770406,inf,inf,inf,inf,1,1,1,1,2,0,2,1,3,1,1,1
616852934,167894030,36.204817999999996,138.25291959999998,-0.3043566,0.20496409,-2.938334,-0.039897293,0.04249571,0.0,-0.009071396,0.0038471285,-0.033585075,-0.02739041,-0.038354572,0.054698005,-0.03981606,-4.2588367,2.3969488,-0.5068892,-2.451798,0.0009503523,48.948917,0.1133821,0.47367108,0.401091,0.15031151,0.109132834,inf,inf,inf,inf,1,1,1,1,2,0,2,1,3,1,1,1
616952917,167894030,36.204817999999996,138.25291959999998,-0.30426642,0.20288615,-2.938012,-0.039897293,0.04249571,0.0,0.002932295,0.010609393,-0.02497054,-0.016297158,-0.038354572,0.054698005,-0.03981606,0.9858328,3.2687407,0.93853074,-2.452718,0.0009503523,48.948917,0.11022997,0.4816246,0.40292633,0.15493508,0.110482454,inf,inf,inf,inf,1,1,1,1,2,0,2,1,3,1,1,1
617052907,167894030,36.204817999999996,138.25291959999998,-0.30413738,0.20376983,-2.9358208,-0.039897293,0.04249571,0.0,0.0027249686,-0.0045033717,-0.025748823,-0.013191203,-0.038354572,0.054698005,-0.03981606,1.4343057,-0.96662617,0.007823464,-2.4537032,0.0009503523,48.948917,0.115689516,0.47258234,0.39972287,0.14917101,0.108644195,inf,inf,inf,inf,1,1,1,1,2,0,2,1,3,1,1,1
617152883,167894030,36.204817999999996,138.25291959999998,-0.30423582,0.20440878,-2.9334698,-0.039897293,0.04249571,0.0,0.00024184637,-0.006599162,-0.03040996,-0.014211415,-0.038354572,0.054698005,-0.03981606,-0.52278817,-0.22738951,-0.5716095,-2.4538074,0.0009503523,48.948917,0.1255579,0.46516132,0.3998704,0.14677453,0.10753766,inf,inf,inf,inf,1,1,1,1,2,0,2,1,3,1,1,1
617252865,167894030,36.204817999999996,138.25291959999998,-0.30701935,0.20423532,-2.9294531,-0.039897293,0.04249571,0.0,-0.02959615,0.017770791,-0.059596706,-0.038014397,-0.038354572,0.054698005,-0.03981606,-2.7378042,3.9688714,-2.1440196,-2.4496102,0.0009503523,48.948917,0.12196207,0.472578,0.40165588,0.15785256,0.1089107,inf,inf,inf,inf,1,1,1,1,2,0,2,1,3,1,1,1
617352847,167894030,36.204817999999996,138.25291959999998,-0.31215367,0.2053098,-2.9289136,-0.039897293,0.04249571,0.0,-0.059087373,0.020935126,-0.06081167,-0.0361982,-0.038354572,0.054698005,-0.03981606,-2.162541,4.5735025,-0.6806438,-2.4385846,0.0009503523,48.948917,0.12142253,0.4643257,0.39855805,0.15969685,0.1071004,inf,inf,inf,inf,1,1,1,1,2,0,2,1,3,1,1,1
617452840,167894030,36.204817999999996,138.25291959999998,-0.316864,0.20752782,-2.933046,-0.039897293,0.04249571,0.0,-0.0716089,0.011068467,-0.13419999,-0.107897736,-0.038354572,0.054698005,-0.03981606,5.7563257,0.40489736,-4.424439,-2.4220471,0.0009503523,48.948917,0.12555504,0.47160068,0.40031725,0.17709525,0.10847442,inf,inf,inf,inf,1,1,1,1,2,0,2,1,3,1,1,1
617552813,167894030,36.204817999999996,138.25291959999998,-0.32551622,0.20927338,-2.9472296,-0.039897293,0.04249571,0.0,-0.11243632,0.0058813775,-0.22984491,-0.20316805,-0.038354572,0.054698005,-0.03981606,4.645332,-1.4984074,-0.078240976,-2.404576,0.0009503523,48.948917,0.13973856,0.46506417,0.39842328,0.18220644,0.10744395,inf,inf,inf,inf,1,1,1,1,2,0,2,1,3,1,1,1
617652795,167894030,36.204817999999996,138.25291959999998,-0.33712044,0.21100375,-2.97253,-0.039897293,0.04249571,0.0,-0.15926614,-0.01779467,-0.3552589,-0.32697275,-0.038354572,0.054698005,-0.03981606,-0.5951231,-6.0736594,-1.9767766,-2.3885357,0.0009503523,48.948917,0.16503882,0.4725031,0.40018868,0.2027193,0.1088212,inf,inf,inf,inf,1,1,1,1,2,0,2,1,3,1,1,1
617752778,167894030,36.204817999999996,138.25291959999998,-0.35082898,0.21179372,-3.0063622,-0.039897293,0.04249571,0.0,-0.19401148,0.0029429574,-0.40956855,-0.378783,-0.038354572,0.054698005,-0.03981606,-4.9398685,3.8546097,0.9065889,-2.3761573,0.0009503523,48.948917,0.20101976,0.46587002,0.3983253,0.2039704,0.10781159,inf,inf,inf,inf,1,1,1,1,2,0,2,1,3,1,1,1
617852761,167894030,36.204817999999996,138.25291959999998,-0.35764745,0.20946865,-3.032785,-0.039897293,0.04249571,0.0,-0.18266332,-0.00235661,-0.41275683,-0.37042522,-0.038354572,0.054698005,-0.03981606,-1.1051227,5.024733,1.224043,-2.3675961,0.0009503523,48.948917,0.2274425,0.47359046,0.4027459,0.22509755,0.109496884,inf,inf,inf,inf,1,1,1,1,2,0,2,1,3,1,1,1
617952748,167894030,36.204817999999996,138.25291959999998,-0.36535314,0.20638825,-3.0601857,-0.039897293,0.04249571,0.0,-0.17392796,-0.021047916,-0.42116326,-0.369628,-0.038354572,0.054698005,-0.03981606,-2.387262,-1.3359276,0.9424506,-2.3612833,0.0009503523,48.948917,0.25484324,0.4664562,0.40065727,0.21920098,0.10833183,inf,inf,inf,inf,1,1,1,1,2,0,2,1,3,1,1,1
618052736,167894030,36.204817999999996,138.25291959999998,-0.36469492,0.20438053,-3.081911,-0.039897293,0.04249571,0.0,-0.1467621,-0.020937456,-0.42463556,-0.35798025,-0.038354572,0.054698005,-0.03981606,-2.6705732,1.8230491,4.6364517,-2.3570285,0.0009503523,48.948917,0.27656865,0.47442535,0.4024726,0.2393601,0.10970582,inf,inf,inf,inf,1,1,1,1,2,0,2,1,3,1,1,1
618152708,167894030,36.204817999999996,138.25291959999998,-0.36439666,0.2024957,-3.1100733,-0.039897293,0.04249571,0.0,-0.11189439,-0.035989128,-0.47357523,-0.39758426,-0.038354572,0.054698005,-0.03981606,5.3415384,-3.4976668,-0.2514516,-2.354477,0.0009503523,48.948917,0.3047309,0.4674204,0.40060347,0.22992608,0.10866188,inf,inf,inf,inf,1,1,1,1,2,0,2,1,3,1,1,1
618252690,167894030,36.204817999999996,138.25291959999998,-0.36070767,0.20439066,-3.13932,-0.039897293,0.04249571,0.0,-0.09706462,-0.01082575,-0.55282843,-0.4641983,-0.038354572,0.054698005,-0.03981606,0.44937357,3.2429245,-0.2065946,-2.3541667,0.0009503523,48.948917,0.33397746,0.475746,0.40242302,0.24887861,0.11002347,inf,inf,inf,inf,1,1,1,1,2,0,2,1,3,1,1,1
618352673,167894030,36.204817999999996,138.25291959999998,-0.35698596,0.20653135,-3.178965,-0.039897293,0.04249571,0.0,-0.08893055,-0.010253995,-0.5930298,-0.49744287,-0.038354572,0.054698005,-0.03981606,-4.8277135,3.0682068,-2.2444022,-2.3554611,0.0009503523,48.948917,0.37362266,0.46787086,0.4001987,0.23311329,0.10873679,inf,inf,inf,inf,1,1,1,1,2,0,2,1,3,1,1,1
618452655,167894030,36.204817999999996,138.25291959999998,-0.34711835,0.2130541,-3.215991,-0.039897293,0.04249571,0.0,-0.060967688,0.008279396,-0.6234991,-0.5157795,-0.038354572,0.054698005,-0.03981606,-6.2646112,6.9403076,1.719008,-2.3579028,0.0009503523,48.948917,0.41064858,0.47635967,0.40201154,0.25047025,0.11009068,inf,inf,inf,inf,1,1,1,1,2,0,2,1,3,1,1,1
618552638,167894030,36.204817999999996,138.25291959999998,-0.33801964,0.21844192,-3.262325,-0.039897293,0.04249571,0.0,-0.012657569,-0.02378216,-0.69801784,-0.58339155,-0.038354572,0.054698005,-0.03981606,5.402932,-5.8555455,-3.6354995,-2.3609018,0.0009503523,48.948917,0.4569826,0.46823132,0.399741,0.23262946,0.10876358,inf,inf,inf,inf,1,1,1,1,2,0,2,1,3,1,1,1
618652620,167894030,36.204817999999996,138.25291959999998,-0.33034056,0.22177176,-3.3005772,-0.039897293,0.04249571,0.0,-0.005653027,0.010273552,-0.74020797,-0.6061862,-0.038354572,0.054698005,-0.03981606,-0.64467835,6.783282,-2.765099,-2.363896,0.0009503523,48.948917,0.49523473,0.4768253,0.4042236,0.24832416,0.11042512,inf,inf,inf,inf,1,1,1,1,2,0,2,1,3,1,1,1
618752606,167894030,36.204817999999996,138.25291959999998,-0.32363263,0.22441897,-3.3510063,-0.039897293,0.04249571,0.0,0.0079972455,-0.0076726256,-0.7781915,-0.63549507,-0.038354572,0.054698005,-0.03981606,0.6114413,1.0090019,-3.0728805,-2.3668647,0.0009503523,48.948917,0.54566383,0.46999255,0.40269148,0.23556764,0.109586574,inf,inf,inf,inf,1,1,1,1,2,0,2,1,3,1,1,1
618852586,167894030,36.204817999999996,138.25291959999998,-0.31826898,0.23131259,-3.400275,-0.039897293,0.04249571,0.0,0.020742673,-0.00213268,-0.81830525,-0.6630748,-0.038354572,0.054698005,-0.03981606,1.8033767,2.1195853,-0.93976504,-2.3702898,0.0009503523,48.948917,0.59493256,0.4790629,0.40453246,0.25008598,0.11093026,inf,inf,inf,inf,1,1,1,1,2,0,2,1,3,1,1,1
618952568,167894030,36.204817999999996,138.25291959999998,-0.31519544,0.23751637,-3.462547,-0.039897293,0.04249571,0.0,0.008622111,-0.0051909555,-0.89123255,-0.73221064,-0.038354572,0.054698005,-0.03981606,1.2291316,-4.298289,-2.3169675,-2.373121,0.0009503523,48.948917,0.6572046,0.47379887,0.40388495,0.24278228,0.11064985,inf,inf,inf,inf,1,1,1,1,2,0,2,1,3,1,1,1
619052597,167894030,36.204817999999996,138.25291959999998,-0.3204552,0.24454054,-3.523174,-0.039897293,0.04249571,0.0,0.011239228,-0.017945074,-0.93906355,-0.76915544,-0.038354572,0.054698005,-0.03981606,7.427936,-11.165499,-2.0886462,-2.3775468,0.0009503523,48.948917,0.7178316,0.48378262,0.40575576,0.25652516,0.111979395,inf,inf,inf,inf,1,1,1,1,2,0,2,1,3,1,1,1
619152533,167894030,36.204817999999996,138.25291959999998,-0.3259183,0.24960396,-3.5963113,-0.039897293,0.04249571,0.0,-0.0001535397,0.012422912,-0.993248,-0.8197537,-0.038354572,0.054698005,-0.03981606,-0.2687867,2.9214294,-0.0419545,-2.3800824,0.0009503523,48.948917,0.7909689,0.4749006,0.40377402,0.23750223,0.11081812,inf,inf,inf,inf,1,1,1,1,2,0,2,1,3,1,1,1
619252516,167894030,36.204817999999996,138.25291959999998,-0.33162203,0.24868256,-3.6542597,-0.039897293,0.04249571,0.0,0.010643904,0.0066446457,-1.0071901,-0.8119655,-0.038354572,0.054698005,-0.03981606,10.187508,-5.344612,-0.55438125,-2.3737898,0.0009503523,48.948917,0.84891725,0.48494056,0.40839988,0.2499692,0.112472706,inf,inf,inf,inf,1,1,1,1,2,0,2,1,3,1,1,1
619352507,167894030,36.204817999999996,138.25291959999998,-0.33676672,0.24925399,-3.7186995,-0.039897293,0.04249571,0.0,0.004186643,0.06240515,-0.8147684,-0.6127737,-0.038354572,0.054698005,-0.03981606,-1.9437511,2.1980696,4.272493,-2.3748055,0.0009503523,48.948917,0.913357,0.4788915,0.40761384,0.2404694,0.11207481,inf,inf,inf,inf,1,1,1,1,2,0,2,1,3,1,1,1
619452480,167894030,36.204817999999996,138.25291959999998,-0.33437228,0.26062503,-3.730013,-0.039897293,0.04249571,0.0,0.12110879,0.26614743,-0.14115694,0.07512494,-0.038354572,0.054698005,-0.03981606,2.701966,3.3258574,4.0634246,-2.41598,0.0009503523,48.948917,0.92467046,0.48963523,0.4095469,0.2522024,0.11338808,inf,inf,inf,inf,1,1,1,1,2,0,2,1,3,1,1,1
619552463,167894030,36.204817999999996,138.25291959999998,-0.3206948,0.29411742,-3.6854844,-0.039897293,0.04249571,0.0,0.21802908,0.4230561,0.4101122,0.6271194,-0.038354572,0.054698005,-0.03981606,0.38518643,0.45775154,3.447406,-2.531616,0.0009503523,48.948917,0.880142,0.48315603,0.40871477,0.24161907,0.11294726,inf,inf,inf,inf,1,1,1,1,2,0,2,1,3,1,1,1
619652446,167894030,36.204817999999996,138.25291959999998,-0.3068023,0.32379192,-3.6048186,-0.039897293,0.04249571,0.0,0.20526992,0.37319186,0.42102167,0.64605683,-0.038354572,0.054698005,-0.03981606,0.9962714,-2.0405648,-4.2043533,-2.621091,0.0009503523,48.948917,0.79947615,0.49444482,0.41066352,0.25277734,0.114267595,inf,inf,inf,inf,1,1,1,1,2,0,2,1,3,1,1,1
619752453,167894030,36.204817999999996,138.25291959999998,-0.2926571,0.34563038,-3.5504644,-0.039897293,0.04249571,0.0,0.16733786,0.26254287,0.2915322,0.50962615,-0.038354572,0.054698005,-0.03981606,3.4957306,-10.249863,-0.670876,-2.6285958,0.0009503523,48.948917,0.74512196,0.49249494,0.41137883,0.2527424,0.114799485,inf,inf,inf,inf,1,1,1,1,2,0,2,1,3,1,1,1
619852411,167894030,36.204817999999996,138.25291959999998,-0.25344038,0.3347235,-3.5152128,-0.039897293,0.04249571,0.0,0.1898357,0.18100055,0.3038122,0.50224024,-0.038354572,0.054698005,-0.03981606,2.1286826,-8.7846575,-1.0649294,-2.6130295,0.0009503523,48.948917,0.70987034,0.5052155,0.4133728,0.2632254,0.11607545,inf,inf,inf,inf,1,1,1,1,2,0,2,1,3,1,1,1
619952393,167894030,36.204817999999996,138.25291959999998,-0.21261229,0.32312366,-3.4871504,-0.039897293,0.04249571,0.0,0.25039747,0.15927164,0.28626698,0.45969483,-0.038354572,0.054698005,-0.03981606,0.7356647,2.0435045,-3.024181,-2.5831819,0.0009503523,48.948917,0.681808,0.50346625,0.41710773,0.26211354,0.11692736,inf,inf,inf,inf,1,1,1,1,2,0,2,1,3,1,1,1
620052376,167894030,36.204817999999996,138.25291959999998,-0.15270193,0.30618116,-3.4665484,-0.039897293,0.04249571,0.0,0.3304467,0.1319242,0.264287,0.4105469,-0.038354572,0.054698005,-0.03981606,5.787239,-7.355831,-4.2421026,-2.5490632,0.0009503523,48.948917,0.661206,0.51767254,0.41919214,0.2724646,0.118161276,inf,inf,inf,inf,1,1,1,1,2,0,2,1,3,1,1,1
620152358,167894030,36.204817999999996,138.25291959999998,-0.093572244,0.2954787,-3.4497821,-0.039897293,0.04249571,0.0,0.38706145,0.14475855,0.30973673,0.4282845,-0.038354572,0.054698005,-0.03981606,4.6194925,-8.376024,2.3450043,-2.5140114,0.0009503523,48.948917,0.6444397,0.51434845,0.41972464,0.26797128,0.11843409,inf,inf,inf,inf,1,1,1,1,2,0,2,1,3,1,1,1
620252341,167894030,36.204817999999996,138.25291959999998,-0.034536626,0.2815823,-3.4351356,-0.039897293,0.04249571,0.0,0.44644964,0.22403832,0.33131236,0.4207706,-0.038354572,0.054698005,-0.03981606,-0.43483758,1.2510794,1.183331,-2.4778037,0.0009503523,48.948917,0.62979317,0.52972186,0.4218298,0.27809063,0.11961815,inf,inf,inf,inf,1,1,1,1,2,0,2,1,3,1,1,1
620352375,167894030,36.204817999999996,138.25291959999998,0.026151435,0.27884963,-3.417413,-0.039897293,0.04249571,0.0,0.49205312,0.2626534,0.39025208,0.45236138,-0.038354572,0.054698005,-0.03981606,-4.628898,0.5896653,2.4589195,-2.4482849,0.0009503523,48.948917,0.61207056,0.52579975,0.42233855,0.27261627,0.11982355,inf,inf,inf,inf,1,1,1,1,2,0,2,1,3,1,1,1
620452306,167894030,36.204817999999996,138.25291959999998,0.081193306,0.2732357,-3.3964024,-0.039897293,0.04249571,0.0,0.5309165,0.30337524,0.4546793,0.48948893,-0.038354572,0.054698005,-0.03981606,0.36755544,4.3638587,-1.7886513,-2.4198892,0.0009503523,48.948917,0.5910599,0.5422101,0.42445362,0.28244182,0.12098546,inf,inf,inf,inf,1,1,1,1,2,0,2,1,3,1,1,1
620552289,167894030,36.204817999999996,138.25291959999998,0.13635062,0.27827352,-3.3705301,-0.039897293,0.04249571,0.0,0.5544309,0.27975056,0.49798566,0.50803673,-0.038354572,0.054698005,-0.03981606,3.5829058,-6.8759522,-1.2000644,-2.3936071,0.0009503523,48.948917,0.5651877,0.5599616,0.42657733,0.2923062,0.12210368,inf,inf,inf,inf,1,1,1,1,2,0,2,1,3,1,1,1
620652295,167894030,36.204817999999996,138.25291959999998,0.17226477,0.2709317,-3.3459535,-0.039897293,0.04249571,0.0,0.51559097,0.223321,0.52601707,0.50953585,-0.038354572,0.054698005,-0.03981606,1.1905043,-4.486739,-1.4593459,-2.372767,0.0009503523,48.948917,0.540611,0.5525533,0.4299128,0.28263783,0.12250111,inf,inf,inf,inf,1,1,1,1,2,0,2,1,3,1,1,1
620752254,167894030,36.204817999999996,138.25291959999998,0.20695052,0.2601888,-3.3190336,-0.039897293,0.04249571,0.0,0.46407896,0.12015553,0.56331867,0.5234798,-0.038354572,0.054698005,-0.03981606,-6.5385337,0.03728112,2.151562,-2.3584108,0.0009503523,48.948917,0.5136912,0.541206,0.4292763,0.26803616,0.12200377,inf,inf,inf,inf,1,1,1,1,2,0,2,1,3,1,1,1
620852236,167894030,36.204817999999996,138.25291959999998,0.2245125,0.21802679,-3.294272,-0.039897293,0.04249571,0.0,0.4260957,-0.04246865,0.5683092,0.50335145,-0.038354572,0.054698005,-0.03981606,3.795542,-0.93933356,-0.61291707,-2.3485425,0.0009503523,48.948917,0.4889295,0.5582066,0.4314207,0.27677542,0.12311746,inf,inf,inf,inf,1,1,1,1,2,0,2,1,3,1,1,1
620952220,167894030,36.204817999999996,138.25291959999998,0.23730579,0.17209966,-3.267802,-0.039897293,0.04249571,0.0,0.3646774,-0.19115962,0.6113774,0.5241995,-0.038354572,0.054698005,-0.03981606,3.091157,0.8955484,2.879334,-2.338015,0.0009503523,48.948917,0.46245956,0.53533506,0.42836538,0.24880384,0.12119967,inf,inf,inf,inf,1,1,1,1,2,0,2,1,3,1,1,1
621052202,167894030,36.204817999999996,138.25291959999998,0.21261823,0.12536032,-3.2470279,-0.039897293,0.04249571,0.0,0.24081433,-0.2646792,0.6492469,0.53170526,-0.038354572,0.054698005,-0.03981606,-1.9649025,6.3358455,0.9386463,-2.3311217,0.0009503523,48.948917,0.44168544,0.55083394,0.43044427,0.25658065,0.12228745,inf,inf,inf,inf,1,1,1,1,2,0,2,1,3,1,1,1
621152184,167894030,36.204817999999996,138.25291959999998,0.1892148,0.08018755,-3.216071,-0.039897293,0.04249571,0.0,0.1360052,-0.29584295,0.6893619,0.5506047,-0.038354572,0.054698005,-0.03981606,-1.8970026,-0.9958066,-0.090537645,-2.3295574,0.0009503523,48.948917,0.41072845,0.53789425,0.42902687,0.24228944,0.121360414,inf,inf,inf,inf,1,1,1,1,2,0,2,1,3,1,1,1
621252167,167894030,36.204817999999996,138.25291959999998,0.15635553,0.047274116,-3.1885028,-0.039897293,0.04249571,0.0,0.031668216,-0.2610022,0.7347019,0.57084006,-0.038354572,0.054698005,-0.03981606,-2.6006138,-1.6434458,1.6491344,-2.3311193,0.0009503523,48.948917,0.38316035,0.55311203,0.43107983,0.24964939,0.122450426,inf,inf,inf,inf,1,1,1,1,2,0,2,1,3,1,1,1
621352149,167894030,36.204817999999996,138.25291959999998,0.12279439,0.024983859,-3.1526299,-0.039897293,0.04249571,0.0,-0.03864494,-0.19032463,0.76509106,0.58262765,-0.038354572,0.054698005,-0.03981606,-5.9672704,3.0138922,1.7984198,-2.3313458,0.0009503523,48.948917,0.34728742,0.540774,0.42970058,0.23694052,0.121550545,inf,inf,inf,inf,1,1,1,1,2,0,2,1,3,1,1,1
621452135,167894030,36.204817999999996,138.25291959999998,0.07559,0.033191554,-3.1234238,-0.039897293,0.04249571,0.0,-0.049454913,-0.12071526,0.6924107,0.48660502,-0.038354572,0.054698005,-0.03981606,1.3258339,1.577389,-1.2233799,-2.3314679,0.0009503523,48.948917,0.31808138,0.55578214,0.435037,0.24390957,0.123070784,inf,inf,inf,inf,1,1,1,1,2,0,2,1,3,1,1,1
621552119,167894030,36.204817999999996,138.25291959999998,0.039990775,0.043209072,-3.1047215,-0.039897293,0.04249571,0.0,-0.036896046,-0.063808486,0.46521205,0.24383573,-0.038354572,0.054698005,-0.03981606,-2.0153444,5.939652,-0.81988835,-2.329034,0.0009503523,48.948917,0.2993791,0.5453108,0.4340321,0.2340014,0.12238751,inf,inf,inf,inf,1,1,1,1,2,0,2,1,3,1,1,1
621652098,167894030,36.204817999999996,138.25291959999998,0.03466276,0.049656913,-3.12033,-0.039897293,0.04249571,0.0,0.09251109,-0.115489945,0.25091952,0.007088187,-0.038354572,0.054698005,-0.03981606,5.891554,-7.7811136,-1.2651516,-2.3289266,0.0009503523,48.948917,0.31498766,0.5603232,0.4360572,0.24068668,0.12343283,inf,inf,inf,inf,1,1,1,1,2,0,2,1,3,1,1,1
621752079,167894030,36.204817999999996,138.25291959999998,0.04198989,0.051106166,-3.1417887,-0.039897293,0.04249571,0.0,0.19197552,-0.13397811,0.2302685,-0.027008358,-0.038354572,0.054698005,-0.03981606,-1.0764335,-3.1641483,-1.4707569,-2.3342447,0.0009503523,48.948917,0.3364463,0.54341906,0.43338844,0.2245989,0.121823564,inf,inf,inf,inf,1,1,1,1,2,0,2,1,3,1,1,1
621852062,167894030,36.204817999999996,138.25291959999998,0.049617656,0.04854818,-3.1549091,-0.039897293,0.04249571,0.0,0.26468572,-0.18197523,0.38960996,0.11920019,-0.038354572,0.054698005,-0.03981606,2.3116593,-3.4978502,1.2956482,-2.3411393,0.0009503523,48.948917,0.3495667,0.55775577,0.4353683,0.23090863,0.12283611,inf,inf,inf,inf,1,1,1,1,2,0,2,1,3,1,1,1
621952049,167894030,36.204817999999996,138.25291959999998,0.06410346,0.039412882,-3.1472602,-0.039897293,0.04249571,0.0,0.2996226,-0.23374239,0.48856324,0.2141085,-0.038354572,0.054698005,-0.03981606,2.1205401,-5.240056,3.1323109,-2.3461962,0.0009503523,48.948917,0.34191775,0.5384587,0.4316263,0.21298228,0.12063568,inf,inf,inf,inf,1,1,1,1,2,0,2,1,3,1,1,1
622052027,167894030,36.204817999999996,138.25291959999998,0.058548488,0.033353608,-3.137905,-0.039897293,0.04249571,0.0,0.255318,-0.24773464,0.4658932,0.18555069,-0.038354572,0.054698005,-0.03981606,-4.330323,0.64524096,0.96518606,-2.3466136,0.0009503523,48.948917,0.33256245,0.5518333,0.4335217,0.21884418,0.121650554,inf,inf,inf,inf,1,1,1,1,2,0,2,1,3,1,1,1
622152015,167894030,36.204817999999996,138.25291959999998,0.05603048,0.021069031,-3.125497,-0.039897293,0.04249571,0.0,0.2144456,-0.26818153,0.47764224,0.19534081,-0.038354572,0.054698005,-0.03981606,-5.1138406,6.626511,2.1246848,-2.348744,0.0009503523,48.948917,0.32015467,0.53247184,0.43240517,0.20142147,0.11959023,inf,inf,inf,inf,1,1,1,1,2,0,2,1,3,1,1,0
622251993,167894030,36.204817999999996,138.25291959999998,0.03584741,0.013412813,-3.1256874,-0.039897293,0.04249571,0.0,0.19778112,-0.31996807,0.4385622,0.14269657,-0.038354572,0.054698005,-0.03981606,-2.6775422,2.8193622,0.5568567,-2.350245,0.0009503523,48.948917,0.32034492,0.54485995,0.4342834,0.20693757,0.12065361,inf,inf,inf,inf,1,1,1,1,2,0,2,1,3,1,1,0
622351986,167894030,36.204817999999996,138.25291959999998,0.02543895,-0.002950565,-3.1190977,-0.039897293,0.04249571,0.0,0.26570588,-0.38905296,0.44672996,0.14721213,-0.038354572,0.054698005,-0.03981606,7.022151,-1.2106351,0.97318846,-2.349598,0.0009503523,48.948917,0.31375527,0.5349681,0.4325988,0.19976558,0.11971815,inf,inf,inf,inf,1,1,1,1,2,0,2,1,3,1,1,0
622451957,167894030,36.204817999999996,138.25291959999998,0.020666583,-0.015788823,-3.1179328,-0.039897293,0.04249571,0.0,0.35930333,-0.43271416,0.4352186,0.12720764,-0.038354572,0.054698005,-0.03981606,0.06875336,-5.424926,-1.5541861,-2.3438942,0.0009503523,48.948917,0.31259036,0.54733634,0.43444404,0.20515749,0.12076178,inf,inf,inf,inf,1,1,1,1,2,0,2,1,3,1,1,0
622551940,167894030,36.204817999999996,138.25291959999998,0.037254665,-0.034609336,-3.1063135,-0.039897293,0.04249571,0.0,0.50220996,-0.42421085,0.4872973,0.17805456,-0.038354572,0.054698005,-0.03981606,-7.2181787,5.033429,-1.5263325,-2.3378549,0.0009503523,48.948917,0.30097103,0.5331755,0.43124953,0.1940208,0.118982434,inf,inf,inf,inf,1,1,1,1,2,0,2,1,3,1,1,0
622651922,167894030,36.204817999999996,138.25291959999998,0.066333935,-0.03633746,-3.1042264,-0.039897293,0.04249571,0.0,0.69479084,-0.42549667,0.48834842,0.16726424,-0.038354572,0.054698005,-0.03981606,-3.4630523,-2.0979013,0.05217037,-2.3423939,0.0009503523,48.948917,0.29888391,0.54509556,0.43304187,0.19918978,0.12000713,inf,inf,inf,inf,1,1,1,1,2,0,2,1,3,1,1,0
622751904,167894030,36.204817999999996,138.25291959999998,0.12238465,-0.046445936,-3.093849,-0.039897293,0.04249571,0.0,0.9072921,-0.42372927,0.4879595,0.16481747,-0.038354572,0.054698005,-0.03981606,6.035703,-5.569488,-0.51203525,-2.3524225,0.0009503523,48.948917,0.2885065,0.5405304,0.43313575,0.19777651,0.12004922,inf,inf,inf,inf,1,1,1,1,2,0,2,1,3,1,1,0
622851887,167894030,36.204817999999996,138.25291959999998,0.19496109,-0.05762825,-3.0860033,-0.039897293,0.04249571,0.0,1.0138434,-0.39181957,0.358614,0.035992466,-0.038354572,0.054698005,-0.03981606,-2.0098367,7.473956,0.5614553,-2.3588662,0.0009503523,48.948917,0.28066087,0.55294013,0.4383243,0.20297417,0.12151373,inf,inf,inf,inf,1,1,1,1,2,0,2,1,3,1,1,0
622951870,167894030,36.204817999999996,138.25291959999998,0.28075102,-0.07456147,-3.0945778,-0.039897293,0.04249571,0.0,1.1044418,-0.42363265,0.023210596,-0.2916421,-0.038354572,0.054698005,-0.03981606,11.510694,-13.286608,-6.6997433,-2.3590114,0.0009503523,48.948917,0.28923535,0.5489277,0.43863216,0.20208336,0.12168888,inf,inf,inf,inf,1,1,1,1,2,0,2,1,3,1,1,0
623051852,167894030,36.204817999999996,138.25291959999998,0.34765413,-0.08613704,-3.1260107,-0.039897293,0.04249571,0.0,1.029984,-0.36417925,-0.052377913,-0.36020753,-0.038354572,0.054698005,-0.03981606,1.5971575,-1.8028704,-2.06878,-2.3593593,0.0009503523,48.948917,0.32066822,0.5618861,0.44042265,0.2075044,0.12269209,inf,inf,inf,inf,1,1,1,1,2,0,2,1,3,1,1,0
623151835,167894030,36.204817999999996,138.25291959999998,0.40941063,-0.097412586,-3.1487157,-0.039897293,0.04249571,0.0,0.93165606,-0.3170505,0.046496045,-0.2485636,-0.038354572,0.054698005,-0.03981606,6.2491703,-1.4699278,0.52129465,-2.3601046,0.0009503523,48.948917,0.3433733,0.5498038,0.43819034,0.1994016,0.12147312,inf,inf,inf,inf,1,1,1,1,2,0,2,1,3,1,1,0
623251817,167894030,36.204817999999996,138.25291959999998,0.4024516,-0.08523969,-3.1557465,-0.039897293,0.04249571,0.0,0.714177,-0.24773914,0.11794294,-0.16034557,-0.038354572,0.054698005,-0.03981606,-2.7271607,3.0027418,-1.2980287,-2.3561382,0.0009503523,48.948917,0.35040402,0.56257397,0.43993828,0.20448515,0.12244756,inf,inf,inf,inf,1,1,1,1,2,0,2,1,3,1,1,0
623351843,167894030,36.204817999999996,138.25291959999998,0.38691044,-0.0748759,-3.1553473,-0.039897293,0.04249571,0.0,0.4411985,-0.16958429,0.13134022,-0.12798885,-0.038354572,0.054698005,-0.03981606,-11.38468,7.075916,3.1031787,-2.3509953,0.0009503523,48.948917,0.3500049,0.5462671,0.43611392,0.19238141,0.12034841,inf,inf,inf,inf,1,1,1,1,2,0,2,1,3,1,1,0
623456781,167894030,36.204817999999996,138.25291959999998,0.28943452,-0.048987105,-3.1510892,-0.039897293,0.04249571,0.0,0.16594552,-0.10608372,0.11048543,-0.12798168,-0.038354572,0.054698005,-0.03981606,-3.9002876,2.280361,0.26997057,-2.3559468,0.0009503523,48.948917,0.34574676,0.5584327,0.44128373,0.19714563,0.121786416,inf,inf,inf,inf,1,1,1,1,2,0,2,1,3,1,1,0
623556765,167894030,36.204817999999996,138.25291959999998,0.1979104,-0.025636936,-3.1470437,-0.039897293,0.04249571,0.0,-0.050017305,-0.04940047,0.1525747,-0.06804712,-0.038354572,0.054698005,-0.03981606,0.06889894,-0.33268413,1.2666649,-2.3630695,0.0009503523,48.948917,0.34170127,0.5489693,0.43966755,0.19167653,0.12090221,inf,inf,inf,inf,1,1,1,1,2,0,2,1,3,1,1,0
623656747,167894030,36.204817999999996,138.25291959999998,0.10731883,-0.0006044144,-3.1376402,-0.039897293,0.04249571,0.0,-0.17985441,-0.00475636,0.12623413,-0.07473109,-0.038354572,0.054698005,-0.03981606,0.43707746,0.35456303,2.58457,-2.3657238,0.0009503523,48.948917,0.3322978,0.56115603,0.4413904,0.19656688,0.12185522,inf,inf,inf,inf,1,1,1,1,2,0,2,1,3,1,1,0
623756729,167894030,36.204817999999996,138.25291959999998,0.030313496,0.019982252,-3.1270747,-0.039897293,0.04249571,0.0,-0.25358784,0.022089629,0.12969998,-0.051806543,-0.038354572,0.054698005,-0.03981606,0.87634695,-5.112727,-0.99230295,-2.3640134,0.0009503523,48.948917,0.32173228,0.55038464,0.43936735,0.19023547,0.12078801,inf,inf,inf,inf,1,1,1,1,2,0,2,1,3,1,1,0
623856711,167894030,36.204817999999996,138.25291959999998,-0.023697596,0.03390474,-3.115866,-0.039897293,0.04249571,0.0,-0.2585056,0.033196643,0.113321505,-0.050377578,-0.038354572,0.054698005,-0.03981606,3.1880336,0.21203911,0.83108765,-2.361658,0.0009503523,48.948917,0.3105235,0.56248534,0.44105253,0.19510086,0.12176953,inf,inf,inf,inf,1,1,1,1,2,0,2,1,3,1,1,0
623956694,167894030,36.204817999999996,138.25291959999998,-0.06469863,0.042898677,-3.1063843,-0.039897293,0.04249571,0.0,-0.23128533,0.022437425,0.09584606,-0.05204867,-0.038354572,0.054698005,-0.03981606,4.2227035,-4.6533847,0.3066238,-2.35795,0.0009503523,48.948917,0.30104184,0.549337,0.4381273,0.18701357,0.12024682,inf,inf,inf,inf,1,1,1,1,2,0,2,1,3,1,1,0
624056677,167894030,36.204817999999996,138.25291959999998,-0.077229835,0.03850632,-3.098227,-0.039897293,0.04249571,0.0,-0.21865483,0.021848854,0.04754565,-0.08498158,-0.038354572,0.054698005,-0.03981606,-5.4366846,-0.11152846,-1.7410326,-2.354877,0.0009503523,48.948917,0.2928846,0.5611502,0.4397431,0.19176601,0.121223465,inf,inf,inf,inf,1,1,1,1,2,0,2,1,3,1,1,0
624156659,167894030,36.204817999999996,138.25291959999998,-0.08334893,0.033485956,-3.095617,-0.039897293,0.04249571,0.0,-0.15924938,0.006493797,0.018702023,-0.10131315,-0.038354572,0.054698005,-0.03981606,3.0422776,-1.2421153,-1.5530512,-2.3527718,0.0009503523,48.948917,0.29027462,0.54547393,0.43912828,0.18163607,0.119570315,inf,inf,inf,inf,1,1,1,1,2,0,2,1,3,1,1,0
624256641,167894030,36.204817999999996,138.25291959999998,-0.069088556,0.026981054,-3.0949147,-0.039897293,0.04249571,0.0,-0.10633721,-0.008133307,0.041624818,-0.0689528,-0.038354572,0.054698005,-0.03981606,4.281894,-2.3121402,0.46012613,-2.3518143,0.0009503523,48.948917,0.28957224,0.55677104,0.4407454,0.18631697,0.12057133,inf,inf,inf,inf,1,1,1,1,2,0,2,1,3,1,1,0
624356638,167894030,36.204817999999996,138.25291959999998,-0.05534488,0.02131099,-3.0891497,-0.039897293,0.04249571,0.0,-0.080364406,-0.009056527,0.054359723,-0.045698993,-0.038354572,0.054698005,-0.03981606,1.4904732,-2.8316154,-2.8777702,-2.3524888,0.0009503523,48.948917,0.28380728,0.5400811,0.43585634,0.17537513,0.118023485,inf,inf,inf,inf,1,1,1,1,2,0,2,1,3,1,1,0
624456607,167894030,36.204817999999996,138.25291959999998,-0.03708721,0.018651946,-3.0808399,-0.039897293,0.04249571,0.0,-0.06307096,-0.010182816,0.058904227,-0.029195998,-0.038354572,0.054698005,-0.03981606,-4.3249474,-3.654934,1.1505115,-2.352327,0.0009503523,48.948917,0.27549744,0.5507543,0.43740496,0.17980155,0.119039916,inf,inf,inf,inf,1,1,1,1,2,0,2,1,3,1,1,0
624556591,167894030,36.204817999999996,138.25291959999998,-0.020999258,0.015823808,-3.0737512,-0.039897293,0.04249571,0.0,-0.03886728,0.0017690177,0.06296404,-0.01587961,-0.038354572,0.054698005,-0.03981606,-3.6821105,5.1137176,-0.22423637,-2.35269,0.0009503523,48.948917,0.26840878,0.533072,0.4315729,0.1679042,0.11598478,inf,inf,inf,inf,1,1,1,1,2,0,2,1,3,1,1,0
624656583,167894030,36.204817999999996,138.25291959999998,-0.009173324,0.014564701,-3.0718567,-0.039897293,0.04249571,0.0,-0.016770538,-0.005083788,0.055176243,-0.020108182,-0.038354572,0.054698005,-0.03981606,-0.22625083,1.9561732,1.0842458,-2.3525507,0.0009503523,48.948917,0.2665143,0.54300517,0.4330719,0.17229111,0.11703429,inf,inf,inf,inf,1,1,1,1,2,0,2,1,3,1,1,0
624756554,167894030,36.204817999999996,138.25291959999998,4.785473e-05,0.0121197915,-3.0700788,-0.039897293,0.04249571,0.0,-0.02464451,0.020538218,0.060746938,-0.011652263,-0.038354572,0.054698005,-0.03981606,-5.3813057,9.681218,0.33430874,-2.351457,0.0009503523,48.948917,0.2647364,0.52736866,0.4276337,0.16218194,0.1142163,inf,inf,inf,inf,1,1,1,1,2,0,2,1,3,1,1,0
624856538,167894030,36.204817999999996,138.25291959999998,0.004164682,0.004812759,-3.0730062,-0.039897293,0.04249571,0.0,-0.016692102,-0.00038195192,0.040976986,-0.03366817,-0.038354572,0.054698005,-0.03981606,-0.37327787,3.0423787,-2.1077754,-2.3485928,0.0009503523,48.948917,0.26766372,0.53671294,0.43235224,0.16646987,0.115718536,inf,inf,inf,inf,1,1,1,1,2,0,2,1,3,1,1,0
624956520,167894030,36.204817999999996,138.25291959999998,0.007968461,-0.0012950688,-3.0764365,-0.039897293,0.04249571,0.0,0.00092215335,-0.015419461,0.052729767,-0.022876443,-0.038354572,0.054698005,-0.03981606,4.5981984,0.41011056,1.036541,-2.3460772,0.0009503523,48.948917,0.27109408,0.5270508,0.429687,0.16199484,0.11448625,inf,inf,inf,inf,1,1,1,1,2,0,2,1,3,1,1,0
625056507,167894030,36.204817999999996,138.25291959999998,0.0100917965,-0.0062239473,-3.0766957,-0.039897293,0.04249571,0.0,-0.020944597,0.004440584,0.069685236,-0.0053233714,-0.038354572,0.054698005,-0.03981606,-2.2473958,7.63299,1.9867054,-2.344925,0.0009503523,48.948917,0.27135324,0.53633636,0.43115133,0.16638662,0.11558039,inf,inf,inf,inf,1,1,1,1,2,0,2,1,3,1,1,0
625156484,167894030,36.204817999999996,138.25291959999998,0.011719566,-0.01050741,-3.07648,-0.039897293,0.04249571,0.0,-0.019650197,-0.017925031,0.07508833,9.342833e-05,-0.038354572,0.054698005,-0.03981606,-0.43712735,-1.1185681,1.296579,-2.349316,0.0009503523,48.948917,0.27113748,0.52591336,0.428045,0.16107601,0.11409732,inf,inf,inf,inf,1,1,1,1,2,0,2,1,3,1,1,0
625256467,167894030,36.204817999999996,138.25291959999998,0.012768629,-0.013992297,-3.0768344,-0.039897293,0.04249571,0.0,-0.030592768,-0.03165379,0.028196638,-0.047030527,-0.038354572,0.054698005,-0.03981606,-1.3689271,-2.6156442,-0.62251854,-2.3504002,0.0009503523,48.948917,0.271492,0.53506655,0.42950222,0.16537459,0.115204014,inf,inf,inf,inf,1,1,1,1,2,0,2,1,3,1,1,0
625356449,167894030,36.204817999999996,138.25291959999998,0.013183762,-0.017013878,-3.0857582,-0.039897293,0.04249571,0.0,-0.03379447,-0.013639584,-0.07516069,-0.14883056,-0.038354572,0.054698005,-0.03981606,2.3552883,2.523474,0.005799988,-2.3500419,0.0009503523,48.948917,0.28041577,0.52937317,0.4289021,0.16473249,0.115133226,inf,inf,inf,inf,1,1,1,1,2,0,2,1,3,1,1,0
625456433,167894030,36.204817999999996,138.25291959999998,0.013210373,-0.019608183,-3.0972593,-0.039897293,0.04249571,0.0,-0.04228116,-0.00333523,-0.05013556,-0.12189563,-0.038354572,0.054698005,-0.03981606,-1.2353224,2.912035,-1.6879553,-2.351266,0.0009503523,48.948917,0.29191685,0.53883725,0.43037477,0.1694728,0.116228186,inf,inf,inf,inf,1,1,1,1,2,0,2,1,3,1,1,0
625556414,167894030,36.204817999999996,138.25291959999998,0.013860461,-0.021583712,-3.10243,-0.039897293,0.04249571,0.0,-0.015979802,-0.021582209,0.030989647,-0.037719484,-0.038354572,0.054698005,-0.03981606,6.048719,-2.749628,1.76519,-2.352783,0.0009503523,48.948917,0.29708767,0.52955747,0.43123457,0.16537863,0.11554261,inf,inf,inf,inf,1,1,1,1,2,0,2,1,3,1,1,0
625656398,167894030,36.204817999999996,138.25291959999998,0.015851745,-0.02260778,-3.1003017,-0.039897293,0.04249571,0.0,-0.040801823,0.00012337322,0.05386368,-0.01162056,-0.038354572,0.054698005,-0.03981606,-3.8949888,0.94646907,2.6561966,-2.3524103,0.0009503523,48.948917,0.2949593,0.539009,0.43273038,0.16977873,0.116650075,inf,inf,inf,inf,1,1,1,1,2,0,2,1,3,1,1,0
625756379,167894030,36.204817999999996,138.25291959999998,0.01723927,-0.023840947,-3.0966425,-0.039897293,0.04249571,0.0,-0.046407856,-0.016107796,0.06493138,0.0034706662,-0.038354572,0.054698005,-0.03981606,-2.5527432,-1.5634279,1.6824317,-2.3517349,0.0009503523,48.948917,0.29130006,0.5338783,0.43246365,0.1693034,0.116741896,inf,inf,inf,inf,1,1,1,1,2,0,2,1,3,1,1,0
625856362,167894030,36.204817999999996,138.25291959999998,0.013747196,-0.028655,-3.0926368,-0.039897293,0.04249571,0.0,-0.06508308,-0.035393238,0.04129023,-0.016636401,-0.038354572,0.054698005,-0.03981606,-0.19990614,5.5560613,-1.8195736,-2.3500726,0.0009503523,48.948917,0.2872944,0.54370946,0.43398935,0.1738528,0.11783572,inf,inf,inf,inf,1,1,1,1,2,0,2,1,3,1,1,0
625956388,167894030,36.204817999999996,138.25291959999998,0.006957876,-0.036447957,-3.0900855,-0.039897293,0.04249571,0.0,-0.10558484,-0.104939744,0.035664883,-0.018267708,-0.038354572,0.054698005,-0.03981606,-2.2156467,-3.484727,0.222946,-2.3466609,0.0009503523,48.948917,0.28474307,0.5385055,0.43366557,0.17338715,0.11787019,inf,inf,inf,inf,1,1,1,1,2,0,2,1,3,1,1,0
626056327,167894030,36.204817999999996,138.25291959999998,-0.00817586,-0.043864522,-3.0906615,-0.039897293,0.04249571,0.0,-0.16367245,-0.15188757,0.007546964,-0.0441466,-0.038354572,0.054698005,-0.03981606,-3.2191088,0.74644965,-3.9849913,-2.3438172,0.0009503523,48.948917,0.2853191,0.54871607,0.43520337,0.17818277,0.11894319,inf,inf,inf,inf,1,1,1,1,2,0,2,1,3,1,1,0
626156309,167894030,36.204817999999996,138.25291959999998,-0.025130609,-0.055979226,-3.0912297,-0.039897293,0.04249571,0.0,-0.17263362,-0.1959769,0.041278057,-0.008553062,-0.038354572,0.054698005,-0.03981606,5.246642,-4.15742,1.5221503,-2.3396862,0.0009503523,48.948917,0.28588724,0.5432484,0.43477455,0.17739055,0.118891686,inf,inf,inf,inf,1,1,1,1,2,0,2,1,3,1,1,0
626256292,167894030,36.204817999999996,138.25291959999998,-0.03980296,-0.06269967,-3.0908582,-0.039897293,0.04249571,0.0,-0.17173883,-0.15535821,0.04500759,-0.003141794,-0.038354572,0.054698005,-0.03981606,-2.275927,4.2915864,3.1831396,-2.3355348,0.0009503523,48.948917,0.2855158,0.5538255,0.43631852,0.18219048,0.119944625,inf,inf,inf,inf,1,1,1,1,2,0,2,1,3,1,1,0
626356278,167894030,36.204817999999996,138.25291959999998,-0.052113302,-0.068333015,-3.089615,-0.039897293,0.04249571,0.0,-0.14430466,-0.10412802,0.05355601,0.005715183,-0.038354572,0.054698005,-0.03981606,2.0582068,6.731847,-0.97861373,-2.3323557,0.0009503523,48.948917,0.28427267,0.54836625,0.43937063,0.18121587,0.120363645,inf,inf,inf,inf,1,1,1,1,2,0,2,1,3,1,1,0
626456257,167894030,36.204817999999996,138.25291959999998,-0.060464215,-0.06900299,-3.0881844,-0.039897293,0.04249571,0.0,-0.095630705,-0.09105402,0.06711567,0.019041764,-0.038354572,0.054698005,-0.03981606,4.2385097,-2.6993933,-2.035287,-2.3281498,0.0009503523,48.948917,0.28284192,0.5593201,0.44096777,0.18601231,0.121407546,inf,inf,inf,inf,1,1,1,1,2,0,2,1,3,1,1,0
626556239,167894030,36.204817999999996,138.25291959999998,-0.06646681,-0.066202745,-3.0872893,-0.039897293,0.04249571,0.0,-0.091819644,-0.03985578,0.040550496,-0.007668659,-0.038354572,0.054698005,-0.03981606,-2.8040388,2.4564672,-3.681519,-2.3214989,0.0009503523,48.948917,0.2819469,0.55521643,0.4411335,0.18611126,0.12164059,inf,inf,inf,inf,1,1,1,1,2,0,2,1,3,1,1,0
626656222,167894030,36.204817999999996,138.25291959999998,-0.07470733,-0.05914575,-3.0869899,-0.039897293,0.04249571,0.0,-0.09713781,-0.03888289,0.036025047,-0.011284584,-0.038354572,0.054698005,-0.03981606,3.443287,-1.1246748,-0.3013119,-2.3137503,0.0009503523,48.948917,0.28164744,0.56667286,0.44273454,0.19103613,0.12265489,inf,inf,inf,inf,1,1,1,1,2,0,2,1,3,1,1,0
626756241,167894030,36.204817999999996,138.25291959999998,-0.0880448,-0.055802926,-3.0869982,-0.039897293,0.04249571,0.0,-0.16140313,-0.04994546,0.03248789,-0.014024934,-0.038354572,0.054698005,-0.03981606,-4.19463,-0.18319604,0.7114819,-2.3061278,0.0009503523,48.948917,0.2816558,0.56418186,0.4434523,0.1923664,0.12315909,inf,inf,inf,inf,1,1,1,1,2,0,2,1,3,1,1,0
626856187,167894030,36.204817999999996,138.25291959999998,-0.11078264,-0.054696806,-3.0885448,-0.039897293,0.04249571,0.0,-0.2236441,-0.04601979,0.010619497,-0.03518925,-0.038354572,0.054698005,-0.03981606,-0.519634,-2.3420022,-2.5993664,-2.3027723,0.0009503523,48.948917,0.2832024,0.57628447,0.4450564,0.1974003,0.1241498,inf,inf,inf,inf,1,1,1,1,2,0,2,1,3,1,1,0
626956169,167894030,36.204817999999996,138.25291959999998,-0.14217976,-0.054414213,-3.09136,-0.039897293,0.04249571,0.0,-0.35024187,-0.021845117,-0.01646245,-0.06113768,-0.038354572,0.054698005,-0.03981606,-1.8868465,-1.4385194,-0.16523857,-2.3046021,0.0009503523,48.948917,0.28601766,0.57376593,0.44568655,0.19840358,0.124576464,inf,inf,inf,inf,1,1,1,1,2,0,2,1,3,1,1,0
627056151,167894030,36.204817999999996,138.25291959999998,-0.1917909,-0.051971648,-3.0932107,-0.039897293,0.04249571,0.0,-0.4872901,0.02207025,0.0151302405,-0.02737556,-0.038354572,0.054698005,-0.03981606,-2.9934833,-3.257075,0.32676327,-2.3093534,0.0009503523,48.948917,0.28786826,0.5865097,0.45099735,0.20373291,0.12605877,inf,inf,inf,inf,1,1,1,1,2,0,2,1,3,1,1,0
627156136,167894030,36.204817999999996,138.25291959999998,-0.24885456,-0.044685632,-3.0896611,-0.039897293,0.04249571,0.0,-0.6094899,0.099375114,0.035931658,-0.0019104722,-0.038354572,0.054698005,-0.03981606,-5.505622,7.2439203,1.4441648,-2.3163269,0.0009503523,48.948917,0.2843187,0.5843077,0.45166698,0.20466934,0.12646376,inf,inf,inf,inf,1,1,1,1,2,0,2,1,3,1,1,0
627256117,167894030,36.204817999999996,138.25291959999998,-0.30496448,-0.03300179,-3.0852077,-0.039897293,0.04249571,0.0,-0.64828557,0.100810826,0.04084081,0.007493873,-0.038354572,0.054698005,-0.03981606,4.1953526,-7.9159355,-0.7290328,-2.3194845,0.0009503523,48.948917,0.27986526,0.59771425,0.4533054,0.20985074,0.12737231,inf,inf,inf,inf,1,1,1,1,2,0,2,1,3,1,1,0
627356099,167894030,36.204817999999996,138.25291959999998,-0.35956568,-0.018150745,-3.080454,-0.039897293,0.04249571,0.0,-0.6568026,0.11238363,0.0040722005,-0.025108313,-0.038354572,0.054698005,-0.03981606,-5.966392,-0.52907765,-3.6126485,-2.3223007,0.0009503523,48.948917,0.27511168,0.59494203,0.45375246,0.21002898,0.12762646,inf,inf,inf,inf,1,1,1,1,2,0,2,1,3,1,1,0
627456082,167894030,36.204817999999996,138.25291959999998,-0.3919731,0.0014839267,-3.082907,-0.039897293,0.04249571,0.0,-0.56948936,0.09256568,-0.027396113,-0.055786747,-0.038354572,0.054698005,-0.03981606,-6.2369804,5.815406,-2.808886,-2.3226576,0.0009503523,48.948917,0.27756453,0.60895383,0.45536724,0.2153677,0.12850882,inf,inf,inf,inf,1,1,1,1,2,0,2,1,3,1,1,0
627556064,167894030,36.204817999999996,138.25291959999998,-0.41351992,0.014184625,-3.0898275,-0.039897293,0.04249571,0.0,-0.39002028,0.043834276,-0.043278567,-0.07173923,-0.038354572,0.054698005,-0.03981606,0.28096533,0.78818905,-0.12915193,-2.321577,0.0009503523,48.948917,0.2844851,0.60423213,0.4552229,0.2139875,0.1284308,inf,inf,inf,inf,1,1,1,1,2,0,2,1,3,1,1,0
627656047,167894030,36.204817999999996,138.25291959999998,-0.41113123,0.023468869,-3.091978,-0.039897293,0.04249571,0.0,-0.23554632,0.005866583,0.03021901,0.0031297524,-0.038354572,0.054698005,-0.03981606,5.6020517,-4.071809,3.7911994,-2.3221157,0.0009503523,48.948917,0.28663564,0.6186917,0.45680517,0.21956284,0.12924963,inf,inf,inf,inf,1,1,1,1,2,0,2,1,3,1,1,0
627756030,167894030,36.204817999999996,138.25291959999998,-0.40068513,0.030247383,-3.0883477,-0.039897293,0.04249571,0.0,-0.09093887,-0.025616527,0.050479475,0.02577154,-0.038354572,0.054698005,-0.03981606,7.3469477,-4.2395024,2.3067605,-2.3265352,0.0009503523,48.948917,0.28300524,0.61385995,0.456627,0.21749552,0.1291087,inf,inf,inf,inf,1,1,1,1,2,0,2,1,3,1,1,0
627856013,167894030,36.204817999999996,138.25291959999998,-0.37754244,0.04195275,-3.0854275,-0.039897293,0.04249571,0.0,-0.01523624,-0.018890148,0.025279779,0.0016358782,-0.038354572,0.054698005,-0.03981606,4.462371,-2.3371625,-2.197093,-2.3299258,0.0009503523,48.948917,0.2800851,0.6287383,0.46216327,0.22265634,0.13049755,inf,inf,inf,inf,1,1,1,1,2,0,2,1,3,1,1,0
627955994,167894030,36.204817999999996,138.25291959999998,-0.35639596,0.052168887,-3.0838077,-0.039897293,0.04249571,0.0,0.0034448234,-0.008643939,0.014181323,-0.0074999486,-0.038354572,0.054698005,-0.03981606,-1.8756241,2.3277879,-1.4375315,-2.3314147,0.0009503523,48.948917,0.27846527,0.6245511,0.4621833,0.2211758,0.13046573,inf,inf,inf,inf,1,1,1,1,2,0,2,1,3,1,1,0
628055977,167894030,36.204817999999996,138.25291959999998,-0.34339407,0.06525349,-3.083524,-0.039897293,0.04249571,0.0,-0.046698492,-0.028342009,-0.011261987,-0.031637836,-0.038354572,0.054698005,-0.03981606,-7.8101015,3.8766084,0.45908007,-2.3334007,0.0009503523,48.948917,0.27818155,0.63990045,0.46372375,0.22689722,0.13124572,inf,inf,inf,inf,1,1,1,1,2,0,2,1,3,1,1,0
628155959,167894030,36.204817999999996,138.25291959999998,-0.3406121,0.0706518,-3.085694,-0.039897293,0.04249571,0.0,-0.12772425,-0.09233902,-0.030017694,-0.04928943,-0.038354572,0.054698005,-0.03981606,-7.2432,3.6562986,-1.5711015,-2.3348277,0.0009503523,48.948917,0.28035164,0.6372185,0.46405864,0.22662798,0.13139866,inf,inf,inf,inf,1,1,1,1,2,0,2,1,3,1,1,0
628255941,167894030,36.204817999999996,138.25291959999998,-0.35528198,0.067555375,-3.0884933,-0.039897293,0.04249571,0.0,-0.26422182,-0.1815851,0.0019338026,-0.01562535,-0.038354572,0.054698005,-0.03981606,-1.3820297,-3.752445,1.8986938,-2.3343816,0.0009503523,48.948917,0.2831509,0.65317297,0.4696769,0.23231924,0.13278438,inf,inf,inf,inf,1,1,1,1,2,0,2,1,3,1,1,0
628355924,167894030,36.204817999999996,138.25291959999998,-0.38837597,0.051690694,-3.0873814,-0.039897293,0.04249571,0.0,-0.4481638,-0.2544373,-0.006090442,-0.021112861,-0.038354572,0.054698005,-0.03981606,1.3347473,-0.41733205,-0.41377097,-2.3339512,0.0009503523,48.948917,0.28203893,0.64865273,0.4695562,0.23067375,0.13268715,inf,inf,inf,inf,1,1,1,1,2,0,2,1,3,1,1,0
628455917,167894030,36.204817999999996,138.25291959999998,-0.43844065,0.021734206,-3.0889275,-0.039897293,0.04249571,0.0,-0.6315486,-0.29828933,-0.018916361,-0.03347988,-0.038354572,0.054698005,-0.03981606,4.2828884,-5.2957478,-4.872973,-2.3404455,0.0009503523,48.948917,0.28358507,0.66506314,0.47099036,0.23611626,0.13337727,inf,inf,inf,inf,1,1,1,1,2,0,2,1,3,1,1,0
628555903,167894030,36.204817999999996,138.25291959999998,-0.5032922,-0.012170952,-3.088103,-0.039897293,0.04249571,0.0,-0.7885782,-0.2835076,0.030822549,0.01685609,-0.038354572,0.054698005,-0.03981606,0.723741,2.9713447,-0.960452,-2.3484683,0.0009503523,48.948917,0.28276062,0.6611499,0.47096407,0.23480356,0.13329662,inf,inf,inf,inf,1,1,1,1,2,0,2,1,3,1,1,0
628655871,167894030,36.204817999999996,138.25291959999998,-0.56783944,-0.052098684,-3.0835755,-0.039897293,0.04249571,0.0,-0.87504154,-0.26517957,0.04011305,0.027139684,-0.038354572,0.054698005,-0.03981606,-0.29733706,-1.0039663,1.9553957,-2.3509033,0.0009503523,48.948917,0.27823305,0.6780526,0.47234124,0.24060178,0.13394856,inf,inf,inf,inf,1,1,1,1,2,0,2,1,3,1,1,0
628755865,167894030,36.204817999999996,138.25291959999998,-0.6342205,-0.08916759,-3.0814075,-0.039897293,0.04249571,0.0,-0.8847876,-0.18962128,0.0027642564,-0.009175591,-0.038354572,0.054698005,-0.03981606,-3.2798178,10.869782,-1.0799903,-2.3495212,0.0009503523,48.948917,0.2760651,0.6735809,0.47219238,0.23834713,0.13382871,inf,inf,inf,inf,1,1,1,1,2,0,2,1,3,1,1,0
628855836,167894030,36.204817999999996,138.25291959999998,-0.677282,-0.13096428,-3.0822341,-0.039897293,0.04249571,0.0,-0.79608387,-0.15293647,-0.0038875733,-0.014627834,-0.038354572,0.054698005,-0.03981606,1.0938789,1.2758358,0.9793166,-2.3455935,0.0009503523,48.948917,0.2768917,0.6909139,0.47351182,0.24419577,0.13445923,inf,inf,inf,inf,1,1,1,1,2,0,2,1,3,1,1,0
628955819,167894030,36.204817999999996,138.25291959999998,-0.71224844,-0.16177267,-3.0845177,-0.039897293,0.04249571,0.0,-0.65737313,-0.07656487,-0.015606263,-0.02626018,-0.038354572,0.054698005,-0.03981606,-6.1493216,10.397002,-1.5065553,-2.3406024,0.0009503523,48.948917,0.27917528,0.68686813,0.47786558,0.24280706,0.13507408,inf,inf,inf,inf,1,1,1,1,2,0,2,1,3,1,1,0
629055801,167894030,36.204817999999996,138.25291959999998,-0.71276736,-0.18514483,-3.0887747,-0.039897293,0.04249571,0.0,-0.4491731,-0.052416336,-0.018727412,-0.031288445,-0.038354572,0.054698005,-0.03981606,0.4870267,-3.2451873,-1.1985934,-2.3366687,0.0009503523,48.948917,0.28343225,0.7046898,0.4791797,0.24850972,0.13565847,inf,inf,inf,inf,1,1,1,1,2,0,2,1,3,1,1,0
629155783,167894030,36.204817999999996,138.25291959999998,-0.7021743,-0.19710717,-3.0933518,-0.039897293,0.04249571,0.0,-0.23897621,0.009519198,-0.0070700096,-0.022889238,-0.038354572,0.054698005,-0.03981606,6.9423957,5.539066,-0.8867809,-2.3386168,0.0009503523,48.948917,0.2880094,0.7001789,0.4790336,0.24646494,0.1354807,inf,inf,inf,inf,1,1,1,1,2,0,2,1,3,1,1,0
629255766,167894030,36.204817999999996,138.25291959999998,-0.66277254,-0.19547014,-3.0937047,-0.039897293,0.04249571,0.0,-0.09884619,0.037187397,0.058975287,0.040818762,-0.038354572,0.054698005,-0.03981606,5.4906797,-2.0837016,3.8426132,-2.3414068,0.0009503523,48.948917,0.28836226,0.71843904,0.48028085,0.25216186,0.13599731,inf,inf,inf,inf,1,1,1,1,2,0,2,1,3,1,1,0
629355751,167894030,36.204817999999996,138.25291959999998,-0.62563723,-0.18869136,-3.0950136,-0.039897293,0.04249571,0.0,-0.030786965,0.083647534,0.020180192,-0.0010571461,-0.038354572,0.054698005,-0.03981606,1.0638423,1.9605453,-1.807364,-2.338951,0.0009503523,48.948917,0.28967118,0.711368,0.47969657,0.24826738,0.13560621,inf,inf,inf,inf,1,1,1,1,2,0,2,1,3,1,1,0
629455730,167894030,36.204817999999996,138.25291959999998,-0.5826259,-0.17046753,-3.1000717,-0.039897293,0.04249571,0.0,-0.033207186,0.12887686,0.00891294,-0.016837515,-0.038354572,0.054698005,-0.03981606,3.6858368,1.0685666,1.6573063,-2.3347552,0.0009503523,48.948917,0.29472923,0.72986907,0.4808756,0.25393856,0.13612811,inf,inf,inf,inf,1,1,1,1,2,0,2,1,3,1,1,0
629555714,167894030,36.204817999999996,138.25291959999998,-0.55791163,-0.14887911,-3.102944,-0.039897293,0.04249571,0.0,-0.1351955,0.19906613,0.019595426,-0.008622473,-0.038354572,0.054698005,-0.03981606,2.732998,1.9988812,0.117556565,-2.3283365,0.0009503523,48.948917,0.29760146,0.7243317,0.48056868,0.2516708,0.13592592,inf,inf,inf,inf,1,1,1,1,2,0,2,1,3,1,1,0
629655696,167894030,36.204817999999996,138.25291959999998,-0.55464244,-0.1242963,-3.1051095,-0.039897293,0.04249571,0.0,-0.31045565,0.25344914,0.031068804,0.000545956,-0.038354572,0.054698005,-0.03981606,0.1129339,-3.5997124,-2.687824,-2.32032,0.0009503523,48.948917,0.29976702,0.74321926,0.48632938,0.2574785,0.13719128,inf,inf,inf,inf,1,1,1,1,2,0,2,1,3,1,1,0
629755678,167894030,36.204817999999996,138.25291959999998,-0.57643205,-0.09387605,-3.1041155,-0.039897293,0.04249571,0.0,-0.49198326,0.32157415,0.025527483,-0.004599223,-0.038354572,0.054698005,-0.03981606,5.001511,-1.204597,-3.7735085,-2.3165631,0.0009503523,48.948917,0.29877305,0.73566926,0.48568973,0.25378594,0.13682391,inf,inf,inf,inf,1,1,1,1,2,0,2,1,3,1,1,0
629855662,167894030,36.204817999999996,138.25291959999998,-0.61588097,-0.06330643,-3.1036875,-0.039897293,0.04249571,0.0,-0.70196193,0.3504637,0.058303893,0.026916558,-0.038354572,0.054698005,-0.03981606,1.891626,-5.854631,-0.099867105,-2.317726,0.0009503523,48.948917,0.2983451,0.7548021,0.4867884,0.25968018,0.13729566,inf,inf,inf,inf,1,1,1,1,2,0,2,1,3,1,1,0
629955643,167894030,36.204817999999996,138.25291959999998,-0.6777031,-0.029962938,-3.1026673,-0.039897293,0.04249571,0.0,-0.91204834,0.38607162,0.046610653,0.014429227,-0.038354572,0.054698005,-0.03981606,-5.2194595,2.565243,-3.2772954,-2.3161821,0.0009503523,48.948917,0.2973249,0.7494021,0.48655027,0.25750855,0.13710523,inf,inf,inf,inf,1,1,1,1,2,0,2,1,3,1,1,0
630055649,167894030,36.204817999999996,138.25291959999998,-0.7311948,-0.004672168,-3.1015599,-0.039897293,0.04249571,0.0,-1.0203867,0.33992836,0.056249708,0.022842903,-0.038354572,0.054698005,-0.03981606,-3.55683,5.511845,-0.059600875,-2.3159409,0.0009503523,48.948917,0.29621744,0.7689309,0.48757672,0.26328203,0.13755736,inf,inf,inf,inf,1,1,1,1,2,0,2,1,3,1,1,0
630155607,167894030,36.204817999999996,138.25291959999998,-0.7994433,0.013124734,-3.1007462,-0.039897293,0.04249571,0.0,-1.0369196,0.20390953,0.009987361,-0.021345241,-0.038354572,0.054698005,-0.03981606,8.815615,-5.30343,-2.009298,-2.3157809,0.0009503523,48.948917,0.29540372,0.7635858,0.48735493,0.26126772,0.13741633,inf,inf,inf,inf,1,1,1,1,2,0,2,1,3,1,1,0
630255644,167894030,36.204817999999996,138.25291959999998,-0.8327747,0.007182008,-3.1017382,-0.039897293,0.04249571,0.0,-1.0276959,0.07822042,-0.00883947,-0.038789216,-0.038354572,0.054698005,-0.03981606,0.42105255,-3.7664762,-2.6881537,-2.3127427,0.0009503523,48.948917,0.29639578,0.7835252,0.48833126,0.26739964,0.13785233,inf,inf,inf,inf,1,1,1,1,2,0,2,1,3,1,1,0
630355618,167894030,36.204817999999996,138.25291959999998,-0.87174666,-0.009259028,-3.103261,-0.039897293,0.04249571,0.0,-0.9285951,-0.057272602,0.008338658,-0.020123335,-0.038354572,0.054698005,-0.03981606,-5.2765384,2.4630911,-0.15118627,-2.3073242,0.0009503523,48.948917,0.29791856,0.7757661,0.48774877,0.26388282,0.13750124,inf,inf,inf,inf,1,1,1,1,2,0,2,1,3,1,1,0
630455557,167894030,36.204817999999996,138.25291959999998,-0.8614041,-0.04914398,-3.1063669,-0.039897293,0.04249571,0.0,-0.7323904,-0.18276994,-0.0012271861,-0.029940818,-0.038354572,0.054698005,-0.03981606,0.3053537,4.2294974,0.58142674,-2.300528,0.0009503523,48.948917,0.30102444,0.7959816,0.49351147,0.26994494,0.13869978,inf,inf,inf,inf,1,1,1,1,2,0,2,1,3,1,1,0
630555537,167894030,36.204817999999996,138.25291959999998,-0.8524329,-0.09310917,-3.108385,-0.039897293,0.04249571,0.0,-0.54385746,-0.2713085,0.022611441,-0.005168921,-0.038354572,0.054698005,-0.03981606,-7.2047157,6.733511,1.1008205,-2.2959347,0.0009503523,48.948917,0.30304265,0.78591794,0.4925894,0.26504606,0.13818268,inf,inf,inf,inf,1,1,1,1,2,0,2,1,3,1,1,0
630655517,167894030,36.204817999999996,138.25291959999998,-0.80395633,-0.13349915,-3.1066353,-0.039897293,0.04249571,0.0,-0.2998153,-0.3171135,0.037466142,0.01092017,-0.038354572,0.054698005,-0.03981606,6.334524,2.8718472,1.6510916,-2.2952585,0.0009503523,48.948917,0.3012929,0.8062523,0.49345583,0.27101213,0.13851099,inf,inf,inf,inf,1,1,1,1,2,0,2,1,3,1,1,0
630755510,167894030,36.204817999999996,138.25291959999998,-0.75781405,-0.16997242,-3.1026638,-0.039897293,0.04249571,0.0,-0.13912776,-0.30674767,0.061199296,0.03703279,-0.038354572,0.054698005,-0.03981606,6.3084264,0.64643115,1.4872528,-2.2993233,0.0009503523,48.948917,0.29732132,0.79919684,0.49297005,0.26774943,0.13819951,inf,inf,inf,inf,1,1,1,1,2,0,2,1,3,1,1,0
630855484,167894030,36.204817999999996,138.25291959999998,-0.7040272,-0.19584025,-3.0981798,-0.039897293,0.04249571,0.0,-0.031354185,-0.2649487,0.0068995957,-0.014364713,-0.038354572,0.054698005,-0.03981606,7.290166,-7.2296925,0.6640085,-2.3043158,0.0009503523,48.948917,0.29283738,0.8198294,0.49378422,0.27360216,0.13851938,inf,inf,inf,inf,1,1,1,1,2,0,2,1,3,1,1,0
630955463,167894030,36.204817999999996,138.25291959999998,-0.66085964,-0.21492851,-3.1058128,-0.039897293,0.04249571,0.0,0.0068600145,-0.19998397,-0.17395076,-0.19260435,-0.038354572,0.054698005,-0.03981606,5.497145,-5.8070855,-0.17356572,-2.3045828,0.0009503523,48.948917,0.30047035,0.81090504,0.4930584,0.26959258,0.13813761,inf,inf,inf,inf,1,1,1,1,2,0,2,1,3,1,1,0
631055449,167894030,36.204817999999996,138.25291959999998,-0.62694496,-0.225422,-3.1337042,-0.039897293,0.04249571,0.0,0.00043692428,-0.1318938,-0.32186732,-0.3403174,-0.038354572,0.054698005,-0.03981606,4.272253,-0.33602035,-1.3014492,-2.3063822,0.0009503523,48.948917,0.32836175,0.8317484,0.49380508,0.27641508,0.13847333,inf,inf,inf,inf,1,1,1,1,2,0,2,1,3,1,1,0
631155431,167894030,36.204817999999996,138.25291959999998,-0.6051424,-0.23388615,-3.1645641,-0.039897293,0.04249571,0.0,-0.008280418,-0.09251741,-0.32085893,-0.3362743,-0.038354572,0.054698005,-0.03981606,2.338655,-5.747185,2.9171445,-2.3114452,0.0009503523,48.948917,0.3592217,0.81864506,0.4974901,0.27154365,0.13868088,inf,inf,inf,inf,1,1,1,1,2,0,2,1,3,1,1,0
631255414,167894030,36.204817999999996,138.25291959999998,-0.59473205,-0.25313705,-3.1878169,-0.039897293,0.04249571,0.0,0.0014552562,-0.07566691,-0.2477208,-0.25598356,-0.038354572,0.054698005,-0.03981606,2.9353778,-0.7259446,-1.4768575,-2.3181973,0.0009503523,48.948917,0.38247442,0.8395569,0.49820048,0.27811927,0.13901527,inf,inf,inf,inf,1,1,1,1,2,0,2,1,3,1,1,0
631355398,167894030,36.204817999999996,138.25291959999998,-0.58858865,-0.2706262,-3.1991303,-0.039897293,0.04249571,0.0,-0.012460627,-0.04040654,-0.12466593,-0.12537482,-0.038354572,0.054698005,-0.03981606,-5.2907057,1.5514947,1.8600501,-2.3207471,0.0009503523,48.948917,0.39378786,0.8248204,0.49666184,0.2710535,0.13830456,inf,inf,inf,inf,1,1,1,1,2,0,2,1,3,1,1,0
631455378,167894030,36.204817999999996,138.25291959999998,-0.58578193,-0.29975277,-3.193238,-0.039897293,0.04249571,0.0,0.013682906,-0.026978696,0.043036293,0.05181592,-0.038354572,0.054698005,-0.03981606,0.16897771,1.5564713,1.4106128,-2.3215175,0.0009503523,48.948917,0.38789558,0.84559375,0.49733943,0.27628598,0.13864318,inf,inf,inf,inf,1,1,1,1,2,0,2,1,3,1,1,0
631555361,167894030,36.204817999999996,138.25291959999998,-0.5844548,-0.3224295,-3.1816106,-0.039897293,0.04249571,0.0,-0.0017443326,-0.015184088,0.05749248,0.06987058,-0.038354572,0.054698005,-0.03981606,-3.2940648,6.14633,3.4073818,-2.317463,0.0009503523,48.948917,0.37626815,0.8062584,0.492015,0.25467733,0.13616739,inf,inf,inf,inf,1,1,1,1,2,0,2,1,3,1,1,0
631655343,167894030,36.204817999999996,138.25291959999998,-0.5772097,-0.33992112,-3.1772923,-0.039897293,0.04249571,0.0,0.0052728085,-0.027262641,-0.06563182,-0.049261745,-0.038354572,0.054698005,-0.03981606,1.5356686,-1.8020065,-0.16839379,-2.311258,0.0009503523,48.948917,0.3719499,0.82530826,0.49267837,0.2592054,0.1365491,inf,inf,inf,inf,1,1,1,1,2,0,2,1,3,1,1,0
631755326,167894030,36.204817999999996,138.25291959999998,-0.5719899,-0.35170025,-3.1841314,-0.039897293,0.04249571,0.0,-0.010018909,-0.05672002,-0.10079119,-0.084248096,-0.038354572,0.054698005,-0.03981606,-2.1950142,-4.556935,-0.6481909,-2.3076653,0.0009503523,48.948917,0.37878895,0.7875078,0.4867684,0.23994991,0.13383555,inf,inf,inf,inf,1,1,1,1,2,0,2,1,3,1,1,0
631855308,167894030,36.204817999999996,138.25291959999998,-0.5615155,-0.35326397,-3.1941814,-0.039897293,0.04249571,0.0,-0.0035145762,-0.057427123,-0.11010754,-0.09444458,-0.038354572,0.054698005,-0.03981606,4.581978,-2.9845772,0.8879553,-2.3040116,0.0009503523,48.948917,0.388839,0.8049788,0.4874283,0.24596405,0.13428143,inf,inf,inf,inf,1,1,1,1,2,0,2,1,3,1,1,0
631955290,167894030,36.204817999999996,138.25291959999998,-0.55520606,-0.35440686,-3.2013638,-0.039897293,0.04249571,0.0,-0.030259062,-0.04833885,-0.06973357,-0.053641506,-0.038354572,0.054698005,-0.03981606,-6.493918,2.0393467,-1.8752272,-2.3010657,0.0009503523,48.948917,0.39602137,0.77877086,0.48775306,0.2330242,0.1330709,inf,inf,inf,inf,1,1,1,1,2,0,2,1,3,1,1,0
632055272,167894030,36.204817999999996,138.25291959999998,-0.54875803,-0.34955552,-3.2023075,-0.039897293,0.04249571,0.0,-0.037194386,-0.044462588,-0.041523725,-0.023287931,-0.038354572,0.054698005,-0.03981606,-4.0244355,0.3110514,2.8688014,-2.3005025,0.0009503523,48.948917,0.39696503,0.7953488,0.4884411,0.23826016,0.1335576,inf,inf,inf,inf,1,1,1,1,2,0,2,1,3,1,1,0
632155267,167894030,36.204817999999996,138.25291959999998,-0.5454413,-0.34767836,-3.2047732,-0.039897293,0.04249571,0.0,-0.036173552,-0.03458879,-0.07135313,-0.05226509,-0.038354572,0.054698005,-0.03981606,-4.3711977,1.0619009,-2.323987,-2.299735,0.0009503523,48.948917,0.39943075,0.773402,0.4845816,0.22750664,0.13189164,inf,inf,inf,inf,1,1,1,1,2,0,2,1,3,1,1,0
632255237,167894030,36.204817999999996,138.25291959999998,-0.54103106,-0.3490639,-3.207271,-0.039897293,0.04249571,0.0,-0.033599872,-0.015252896,-0.09289221,-0.0701976,-0.038354572,0.054698005,-0.03981606,-0.6066027,6.602637,1.2323377,-2.299312,0.0009503523,48.948917,0.40192866,0.7893176,0.4852574,0.23264253,0.13241133,inf,inf,inf,inf,1,1,1,1,2,0,2,1,3,1,1,0
632355220,167894030,36.204817999999996,138.25291959999998,-0.53624046,-0.35065797,-3.2126093,-0.039897293,0.04249571,0.0,-0.016934516,-0.02891855,-0.09506827,-0.07051731,-0.038354572,0.054698005,-0.03981606,8.4717455,-0.63671136,-1.5374007,-2.2998402,0.0009503523,48.948917,0.40726686,0.7420786,0.4746341,0.20604555,0.12749724,inf,inf,inf,inf,1,1,1,1,2,0,2,1,3,1,1,0
632455202,167894030,36.204817999999996,138.25291959999998,-0.51812845,-0.3517599,-3.2151399,-0.039897293,0.04249571,0.0,-0.029356359,-0.032489818,-0.07906039,-0.05046005,-0.038354572,0.054698005,-0.03981606,3.6644945,-2.1170084,2.3237386,-2.3011098,0.0009503523,48.948917,0.40979743,0.7556236,0.4753348,0.21102688,0.12812646,inf,inf,inf,inf,1,1,1,1,2,0,2,1,3,1,1,0
632555184,167894030,36.204817999999996,138.25291959999998,-0.50668234,-0.35278657,-3.2169151,-0.039897293,0.04249571,0.0,-0.051435288,-0.019465966,-0.057042614,-0.026081964,-0.038354572,0.054698005,-0.03981606,-5.322641,3.0718713,-0.56193095,-2.3028483,0.0009503523,48.948917,0.4115727,0.72747123,0.4681853,0.19579709,0.124895394,inf,inf,inf,inf,1,1,1,1,2,0,2,1,3,1,1,0
632655168,167894030,36.204817999999996,138.25291959999998,-0.49788308,-0.35180077,-3.2163746,-0.039897293,0.04249571,0.0,-0.035915844,-0.030145776,-0.054187372,-0.020293972,-0.038354572,0.054698005,-0.03981606,3.4668505,-4.788347,-0.07161122,-2.304091,0.0009503523,48.948917,0.4110322,0.7398102,0.47317606,0.20037876,0.12621717,inf,inf,inf,inf,1,1,1,1,2,0,2,1,3,1,1,0
632755148,167894030,36.204817999999996,138.25291959999998,-0.49183527,-0.35095268,-3.2191498,-0.039897293,0.04249571,0.0,-0.053914197,-0.007885843,-0.07224163,-0.03857333,-0.038354572,0.054698005,-0.03981606,-4.8808904,4.0213437,-3.071719,-2.3061492,0.0009503523,48.948917,0.4138074,0.71025974,0.46425873,0.18344368,0.12215283,inf,inf,inf,inf,1,1,1,1,2,0,2,1,3,1,1,0
632855131,167894030,36.204817999999996,138.25291959999998,-0.47087306,-0.3479415,-3.2218227,-0.039897293,0.04249571,0.0,-0.03824211,-0.022756923,-0.07980261,-0.044637714,-0.038354572,0.054698005,-0.03981606,2.4803166,-4.970992,1.8840132,-2.307963,0.0009503523,48.948917,0.4164803,0.721217,0.46500915,0.18800668,0.12294741,inf,inf,inf,inf,1,1,1,1,2,0,2,1,3,1,1,0
632955113,167894030,36.204817999999996,138.25291959999998,-0.45705104,-0.3464206,-3.2251322,-0.039897293,0.04249571,0.0,-0.03669003,-0.0077317804,-0.08042854,-0.04454297,-0.038354572,0.054698005,-0.03981606,1.5770329,-1.1195906,1.9535307,-2.3124285,0.0009503523,48.948917,0.4197898,0.7014117,0.45888624,0.17790654,0.12026792,inf,inf,inf,inf,1,1,1,1,2,0,2,1,3,1,1,0
633055096,167894030,36.204817999999996,138.25291959999998,-0.44383866,-0.3459636,-3.2231686,-0.039897293,0.04249571,0.0,-0.027579417,-0.02418051,-0.072687015,-0.031114217,-0.038354572,0.054698005,-0.03981606,6.104769,-7.693843,-1.9325489,-2.3169413,0.0009503523,48.948917,0.41782618,0.71163464,0.45964238,0.18233685,0.12111872,inf,inf,inf,inf,1,1,1,1,2,0,2,1,3,1,1,0
633155078,167894030,36.204817999999996,138.25291959999998,-0.43405366,-0.34628776,-3.2231112,-0.039897293,0.04249571,0.0,-0.033191867,-5.5235105e-05,-0.064541176,-0.020560434,-0.038354572,0.054698005,-0.03981606,3.1953897,-5.2969813,-2.056907,-2.3243806,0.0009503523,48.948917,0.41776872,0.6960113,0.45490742,0.17524914,0.119146526,inf,inf,inf,inf,1,1,1,1,2,0,2,1,3,1,1,0
633255061,167894030,36.204817999999996,138.25291959999998,-0.41867122,-0.34939075,-3.2214081,-0.039897293,0.04249571,0.0,-0.006722199,0.021040952,-0.017272199,0.027455386,-0.038354572,0.054698005,-0.03981606,-1.0809566,-6.722749,1.019541,-2.3366387,0.0009503523,48.948917,0.4160657,0.7057881,0.455673,0.17970106,0.120035425,inf,inf,inf,inf,1,1,1,1,2,0,2,1,3,1,1,0
633355043,167894030,36.204817999999996,138.25291959999998,-0.40589175,-0.34914592,-3.2212315,-0.039897293,0.04249571,0.0,0.05072459,0.07691843,0.00068111595,0.04257617,-0.038354572,0.054698005,-0.03981606,0.32686004,8.63018,0.28703132,-2.3559039,0.0009503523,48.948917,0.41588902,0.6964931,0.45363265,0.17759006,0.119451016,inf,inf,inf,inf,1,1,1,1,2,0,2,1,3,1,1,0
633455025,167894030,36.204817999999996,138.25291959999998,-0.39368233,-0.34776828,-3.2210147,-0.039897293,0.04249571,0.0,0.16223565,0.099464856,-0.040079784,-0.00040529473,-0.038354572,0.054698005,-0.03981606,1.5612525,-0.3608546,-0.93217546,-2.379292,0.0009503523,48.948917,0.4156723,0.70631564,0.45831186,0.1820675,0.12087248,inf,inf,inf,inf,1,1,1,1,2,0,2,1,3,1,1,0
633555050,167894030,36.204817999999996,138.25291959999998,-0.3735318,-0.3458557,-3.2293403,-0.039897293,0.04249571,0.0,0.24354517,0.047472794,-0.118744954,-0.083478436,-0.038354572,0.054698005,-0.03981606,0.764722,-3.797563,-1.0450202,-2.399311,0.0009503523,48.948917,0.42399788,0.69987863,0.4575368,0.18238974,0.120938614,inf,inf,inf,inf,1,1,1,1,2,0,2,1,3,1,1,0
633654989,167894030,36.204817999999996,138.25291959999998,-0.35032174,-0.34876293,-3.2442267,-0.039897293,0.04249571,0.0,0.2679294,0.050430246,-0.12881114,-0.09811152,-0.038354572,0.054698005,-0.03981606,-0.5886758,-1.3814236,1.9517052,-2.410369,0.0009503523,48.948917,0.43888426,0.7099948,0.45838112,0.1873252,0.12184803,inf,inf,inf,inf,1,1,1,1,2,0,2,1,3,1,1,0
633754977,167894030,36.204817999999996,138.25291959999998,-0.32600972,-0.34963948,-3.2577028,-0.039897293,0.04249571,0.0,0.2533698,0.06828189,-0.11379521,-0.08731827,-0.038354572,0.054698005,-0.03981606,-3.1120875,5.2768054,-0.50479895,-2.4150224,0.0009503523,48.948917,0.4523604,0.7042901,0.45792118,0.18869875,0.12206498,inf,inf,inf,inf,1,1,1,1,2,0,2,1,3,1,1,0
633855006,167894030,36.204817999999996,138.25291959999998,-0.30151466,-0.346784,-3.2681713,-0.039897293,0.04249571,0.0,0.2076121,0.09391899,-0.11290443,-0.08866145,-0.038354572,0.054698005,-0.03981606,-4.00719,9.195247,-1.1846644,-2.4129875,0.0009503523,48.948917,0.46282887,0.7147897,0.45878816,0.19355811,0.122969046,inf,inf,inf,inf,1,1,1,1,2,0,2,1,3,1,1,0
633954936,167894030,36.204817999999996,138.25291959999998,-0.28423792,-0.3393767,-3.2772992,-0.039897293,0.04249571,0.0,0.15553643,0.11503233,-0.08971565,-0.06785918,-0.038354572,0.054698005,-0.03981606,-3.6591644,4.6925735,-3.1035752,-2.4144647,0.0009503523,48.948917,0.47195673,0.70772094,0.45777032,0.192814,0.12285828,inf,inf,inf,inf,1,1,1,1,2,0,2,1,3,1,1,0
634054918,167894030,36.204817999999996,138.25291959999998,-0.28036273,-0.32033795,-3.2794588,-0.039897293,0.04249571,0.0,0.14643036,0.1203564,-0.046778586,-0.022839108,-0.038354572,0.054698005,-0.03981606,1.298866,2.0354548,2.1617079,-2.414264,0.0009503523,48.948917,0.47411633,0.71850306,0.45865464,0.19775395,0.123747386,inf,inf,inf,inf,1,1,1,1,2,0,2,1,3,1,1,0
634154901,167894030,36.204817999999996,138.25291959999998,-0.274786,-0.30346724,-3.283644,-0.039897293,0.04249571,0.0,0.1599859,0.13505201,-0.088510856,-0.06509365,-0.038354572,0.054698005,-0.03981606,0.83020675,6.484799,-3.8604658,-2.4131556,0.0009503523,48.948917,0.47830153,0.7098625,0.46100146,0.19534391,0.123846896,inf,inf,inf,inf,1,1,1,1,2,0,2,1,3,1,1,0
634254883,167894030,36.204817999999996,138.25291959999998,-0.26909643,-0.2976493,-3.2857387,-0.039897293,0.04249571,0.0,0.21603861,0.035776827,-0.08231054,-0.055545498,-0.038354572,0.054698005,-0.03981606,5.3320737,-9.514829,-0.15960854,-2.4090548,0.0009503523,48.948917,0.48039627,0.72080064,0.4619385,0.20035446,0.12475222,inf,inf,inf,inf,1,1,1,1,2,0,2,1,3,1,1,0
634354865,167894030,36.204817999999996,138.25291959999998,-0.25456354,-0.29756176,-3.2922869,-0.039897293,0.04249571,0.0,0.3049759,-0.01174229,-0.08498387,-0.058809265,-0.038354572,0.054698005,-0.03981606,4.6184587,-4.107313,1.6203709,-2.4010153,0.0009503523,48.948917,0.48694444,0.71346766,0.460807,0.19931254,0.124552935,inf,inf,inf,inf,1,1,1,1,2,0,2,1,3,1,1,0
634454847,167894030,36.204817999999996,138.25291959999998,-0.22893366,-0.30886316,-3.2959638,-0.039897293,0.04249571,0.0,0.406474,-0.054426935,-0.06382148,-0.036427718,-0.038354572,0.054698005,-0.03981606,1.3718885,-4.3380384,-0.24465755,-2.3931472,0.0009503523,48.948917,0.49062133,0.7246858,0.46177414,0.20450209,0.1254502,inf,inf,inf,inf,1,1,1,1,2,0,2,1,3,1,1,0
634554832,167894030,36.204817999999996,138.25291959999998,-0.19315134,-0.32067525,-3.2985837,-0.039897293,0.04249571,0.0,0.5084396,-0.09389468,-0.057033513,-0.02981427,-0.038354572,0.054698005,-0.03981606,8.0104685,-11.725512,0.31105605,-2.3898673,0.0009503523,48.948917,0.4932413,0.71710646,0.46057883,0.20305264,0.12519215,inf,inf,inf,inf,1,1,1,1,2,0,2,1,3,1,1,0
634654812,167894030,36.204817999999996,138.25291959999998,-0.15572129,-0.33113357,-3.2983885,-0.039897293,0.04249571,0.0,0.5412001,-0.08868692,-0.061175052,-0.030791562,-0.038354572,0.054698005,-0.03981606,4.331571,-10.386272,2.3041632,-2.386384,0.0009503523,48.948917,0.49304605,0.72859114,0.46154228,0.20809323,0.12607323,inf,inf,inf,inf,1,1,1,1,2,0,2,1,3,1,1,0
634754794,167894030,36.204817999999996,138.25291959999998,-0.11712978,-0.33883247,-3.2980256,-0.039897293,0.04249571,0.0,0.4993976,-0.05788075,0.041451618,0.07191459,-0.038354572,0.054698005,-0.03981606,-0.85080695,-5.932798,3.7106712,-2.3806176,0.0009503523,48.948917,0.49268317,0.7210714,0.4603964,0.206342,0.12581624,inf,inf,inf,inf,1,1,1,1,2,0,2,1,3,1,1,0
634854792,167894030,36.204817999999996,138.25291959999998,-0.09625648,-0.3476257,-3.2862482,-0.039897293,0.04249571,0.0,0.4510643,-0.0842374,0.08459826,0.11600825,-0.038354572,0.054698005,-0.03981606,4.8461123,-11.980737,0.240931,-2.370663,0.0009503523,48.948917,0.48090577,0.7328396,0.46138537,0.21179968,0.1267018,inf,inf,inf,inf,1,1,1,1,2,0,2,1,3,1,1,0
634954759,167894030,36.204817999999996,138.25291959999998,-0.07954409,-0.35651717,-3.2797463,-0.039897293,0.04249571,0.0,0.34548712,-0.05448087,0.0053162407,0.035642557,-0.038354572,0.054698005,-0.03981606,-1.2702976,4.7681723,-1.4190445,-2.360073,0.0009503523,48.948917,0.47440386,0.72520584,0.46431413,0.20911874,0.12699449,inf,inf,inf,inf,1,1,1,1,2,0,2,1,3,1,1,0
635054745,167894030,36.204817999999996,138.25291959999998,-0.07913181,-0.36803374,-3.2776003,-0.039897293,0.04249571,0.0,0.2710401,-0.08111582,-0.0006663251,0.02809082,-0.038354572,0.054698005,-0.03981606,-2.9492514,1.9681711,-2.2527883,-2.3538303,0.0009503523,48.948917,0.47225785,0.7372473,0.46535292,0.21464942,0.1278665,inf,inf,inf,inf,1,1,1,1,2,0,2,1,3,1,1,0
635154723,167894030,36.204817999999996,138.25291959999998,-0.07662331,-0.3799425,-3.2770472,-0.039897293,0.04249571,0.0,0.27219665,-0.0719741,0.013088765,0.037649028,-0.038354572,0.054698005,-0.03981606,3.530906,4.834302,-5.0196357,-2.351521,0.0009503523,48.948917,0.47170472,0.7266209,0.463343,0.2103203,0.12710693,inf,inf,inf,inf,1,1,1,1,2,0,2,1,3,1,1,0
635254705,167894030,36.204817999999996,138.25291959999998,-0.08330132,-0.3909508,-3.2755802,-0.039897293,0.04249571,0.0,0.2532128,-0.059568938,0.03642797,0.056403372,-0.038354572,0.054698005,-0.03981606,-2.736836,2.3905258,1.2844753,-2.3534913,0.0009503523,48.948917,0.47023773,0.7387236,0.46436796,0.21553785,0.12796639,inf,inf,inf,inf,1,1,1,1,2,0,2,1,3,1,1,0
635354688,167894030,36.204817999999996,138.25291959999998,-0.08219444,-0.398637,-3.2695913,-0.039897293,0.04249571,0.0,0.28300694,-0.06606588,0.1590063,0.174233,-0.038354572,0.054698005,-0.03981606,2.7683787,-7.8180923,5.3503838,-2.3641124,0.0009503523,48.948917,0.4642489,0.72330046,0.4608098,0.20658685,0.12637168,inf,inf,inf,inf,1,1,1,1,2,0,2,1,3,1,1,0
635454669,167894030,36.204817999999996,138.25291959999998,-0.08685613,-0.40303388,-3.2564142,-0.039897293,0.04249571,0.0,0.2888099,-0.05889717,0.20399387,0.21280548,-0.038354572,0.054698005,-0.03981606,6.155597,-6.0859175,0.80616367,-2.3686574,0.0009503523,48.948917,0.45107174,0.7350437,0.46184707,0.21172373,0.12725003,inf,inf,inf,inf,1,1,1,1,2,0,2,1,3,1,1,0
635554697,167894030,36.204817999999996,138.25291959999998,-0.08748665,-0.40776858,-3.245404,-0.039897293,0.04249571,0.0,0.2551745,-0.07113335,0.11778403,0.11945621,-0.038354572,0.054698005,-0.03981606,2.9566162,-4.274632,-0.56927365,-2.366921,0.0009503523,48.948917,0.44006157,0.71684396,0.45717743,0.19992372,0.12504299,inf,inf,inf,inf,1,1,1,1,2,0,2,1,3,1,1,0
635654634,167894030,36.204817999999996,138.25291959999998,-0.100579485,-0.4110322,-3.2488418,-0.039897293,0.04249571,0.0,0.21332587,-0.03330397,0.08287173,0.072303325,-0.038354572,0.054698005,-0.03981606,-6.2425256,7.431987,2.6713746,-2.3631446,0.0009503523,48.948917,0.44349933,0.72796893,0.46219915,0.20480984,0.12649406,inf,inf,inf,inf,1,1,1,1,2,0,2,1,3,1,1,0
635754616,167894030,36.204817999999996,138.25291959999998,-0.11001817,-0.4128068,-3.2547772,-0.039897293,0.04249571,0.0,0.2116705,-0.049686275,0.09135949,0.0687231,-0.038354572,0.054698005,-0.03981606,0.03246248,-0.57926786,4.491479,-2.3609247,0.0009503523,48.948917,0.44943476,0.7033904,0.4542988,0.18787138,0.122595385,inf,inf,inf,inf,1,1,1,1,2,0,2,1,3,1,1,0
635854611,167894030,36.204817999999996,138.25291959999998,-0.1269515,-0.40936986,-3.2637515,-0.039897293,0.04249571,0.0,0.2091753,-0.029319432,0.071676135,0.035583306,-0.038354572,0.054698005,-0.03981606,1.7727755,4.551772,-0.50853,-2.3572524,0.0009503523,48.948917,0.45840907,0.7133201,0.45533,0.1929013,0.12355184,inf,inf,inf,inf,1,1,1,1,2,0,2,1,3,1,1,0
635954580,167894030,36.204817999999996,138.25291959999998,-0.13469298,-0.4056602,-3.2667017,-0.039897293,0.04249571,0.0,0.23221807,-0.014473905,0.14343177,0.09867012,-0.038354572,0.054698005,-0.03981606,3.2405157,-1.0467467,0.69887066,-2.3540683,0.0009503523,48.948917,0.46135926,0.69847023,0.45100513,0.18453777,0.12156758,inf,inf,inf,inf,1,1,1,1,2,0,2,1,3,1,1,0
636054563,167894030,36.204817999999996,138.25291959999998,-0.14605957,-0.39766446,-3.2626815,-0.039897293,0.04249571,0.0,0.22877277,0.0053946986,0.2093015,0.15520212,-0.038354572,0.054698005,-0.03981606,-1.6904323,1.6211066,1.5691111,-2.3517392,0.0009503523,48.948917,0.45733905,0.70802027,0.45204994,0.18927705,0.12254522,inf,inf,inf,inf,1,1,1,1,2,0,2,1,3,1,1,0
636154545,167894030,36.204817999999996,138.25291959999998,-0.15114088,-0.3901233,-3.2548225,-0.039897293,0.04249571,0.0,0.23017125,0.042594533,0.18254177,0.12213097,-0.038354572,0.054698005,-0.03981606,4.3055305,2.194187,-2.5570195,-2.348292,0.0009503523,48.948917,0.44948006,0.68848467,0.4451209,0.17538674,0.11908976,inf,inf,inf,inf,1,1,1,1,2,0,2,1,3,1,1,0
636254527,167894030,36.204817999999996,138.25291959999998,-0.17805564,-0.38217732,-3.2540324,-0.039897293,0.04249571,0.0,0.18883188,0.014148729,0.15807967,0.08705416,-0.038354572,0.054698005,-0.03981606,1.2578243,-6.2471986,-1.2459558,-2.3387713,0.0009503523,48.948917,0.44868994,0.6971965,0.44614238,0.17989591,0.12010133,inf,inf,inf,inf,1,1,1,1,2,0,2,1,3,1,1,0
636354509,167894030,36.204817999999996,138.25291959999998,-0.19758064,-0.37554806,-3.2528248,-0.039897293,0.04249571,0.0,0.14411986,0.027237039,0.15475683,0.07778743,-0.038354572,0.054698005,-0.03981606,2.1775236,1.345382,0.83633566,-2.330018,0.0009503523,48.948917,0.44748235,0.68291867,0.44502696,0.17192867,0.118353054,inf,inf,inf,inf,1,1,1,1,2,0,2,1,3,1,1,0
636454492,167894030,36.204817999999996,138.25291959999998,-0.22031322,-0.37271118,-3.256447,-0.039897293,0.04249571,0.0,0.09729886,0.038415555,0.1782057,0.09034664,-0.038354572,0.054698005,-0.03981606,-2.6181703,0.4251501,0.9222265,-2.324479,0.0009503523,48.948917,0.45110464,0.691254,0.4460589,0.1767364,0.11940128,inf,inf,inf,inf,1,1,1,1,2,0,2,1,3,1,1,0
636554473,167894030,36.204817999999996,138.25291959999998,-0.2365794,-0.36893874,-3.2551527,-0.039897293,0.04249571,0.0,0.07251721,0.034828313,0.20467784,0.10956371,-0.038354572,0.054698005,-0.03981606,-5.556605,-0.48988,1.9161905,-2.321028,0.0009503523,48.948917,0.44981027,0.6773663,0.44125888,0.16885254,0.1171448,inf,inf,inf,inf,1,1,1,1,2,0,2,1,3,1,1,0
636654456,167894030,36.204817999999996,138.25291959999998,-0.25019148,-0.3650856,-3.2589498,-0.039897293,0.04249571,0.0,0.09007085,0.043164134,0.18856628,0.082642876,-0.038354572,0.054698005,-0.03981606,1.9122174,5.4432845,-1.7742007,-2.3163812,0.0009503523,48.948917,0.45360732,0.68534285,0.44228885,0.17336471,0.11821498,inf,inf,inf,inf,1,1,1,1,2,0,2,1,3,1,1,0
636754440,167894030,36.204817999999996,138.25291959999998,-0.25782666,-0.36160517,-3.2583709,-0.039897293,0.04249571,0.0,0.08453369,0.04001062,0.19064842,0.07930729,-0.038354572,0.054698005,-0.03981606,1.2572368,-4.0666003,4.316296,-2.3148117,0.0009503523,48.948917,0.45302844,0.6700624,0.43634424,0.16359918,0.11528119,inf,inf,inf,inf,1,1,1,1,2,0,2,1,3,1,1,0
636854420,167894030,36.204817999999996,138.25291959999998,-0.2636748,-0.3611374,-3.2605186,-0.039897293,0.04249571,0.0,0.050850492,0.06450062,0.18405282,0.06478231,-0.038354572,0.054698005,-0.03981606,-8.332945,4.186367,-1.2954577,-2.3130827,0.0009503523,48.948917,0.45517612,0.6775178,0.43734574,0.16796684,0.116377376,inf,inf,inf,inf,1,1,1,1,2,0,2,1,3,1,1,0
636954402,167894030,36.204817999999996,138.25291959999998,-0.26621172,-0.35909382,-3.2581472,-0.039897293,0.04249571,0.0,0.059216194,0.07344445,0.17482148,0.053284295,-0.038354572,0.054698005,-0.03981606,-1.8302531,3.9777012,-1.1806391,-2.3132753,0.0009503523,48.948917,0.4528048,0.6649492,0.43622333,0.16124885,0.11467364,inf,inf,inf,inf,1,1,1,1,2,0,2,1,3,1,1,0
637054384,167894030,36.204817999999996,138.25291959999998,-0.26792765,-0.36098397,-3.2535412,-0.039897293,0.04249571,0.0,0.062420566,0.05579787,0.19924775,0.077024125,-0.038354572,0.054698005,-0.03981606,3.098153,-7.308178,3.5846524,-2.3148203,0.0009503523,48.948917,0.4481988,0.6721308,0.4372627,0.16577187,0.115802065,inf,inf,inf,inf,1,1,1,1,2,0,2,1,3,1,1,0
637154387,167894030,36.204817999999996,138.25291959999998,-0.26953226,-0.36075643,-3.2451732,-0.039897293,0.04249571,0.0,0.02891298,0.06391696,0.18398689,0.06524583,-0.038354572,0.054698005,-0.03981606,-4.38253,-2.389946,0.24018596,-2.315019,0.0009503523,48.948917,0.43983078,0.6587451,0.43190017,0.15763086,0.113185525,inf,inf,inf,inf,1,1,1,1,2,0,2,1,3,1,1,0
637254350,167894030,36.204817999999996,138.25291959999998,-0.27294597,-0.36264428,-3.239387,-0.039897293,0.04249571,0.0,0.020510998,0.07152197,0.19393621,0.07616807,-0.038354572,0.054698005,-0.03981606,-3.210144,3.5272107,0.75799507,-2.3151011,0.0009503523,48.948917,0.4340446,0.66555,0.4329403,0.16208959,0.11434332,inf,inf,inf,inf,1,1,1,1,2,0,2,1,3,1,1,0
637354353,167894030,36.204817999999996,138.25291959999998,-0.2742791,-0.36294937,-3.2277462,-0.039897293,0.04249571,0.0,0.02317799,0.0778565,0.19942087,0.086546056,-0.038354572,0.054698005,-0.03981606,1.5638177,0.51698464,1.3410729,-2.3168378,0.0009503523,48.948917,0.4224038,0.6541192,0.42881957,0.15636028,0.112429395,inf,inf,inf,inf,1,1,1,1,2,0,2,1,3,1,1,0
637454324,167894030,36.204817999999996,138.25291959999998,-0.2695818,-0.3654249,-3.2168782,-0.039897293,0.04249571,0.0,0.041376714,0.08528885,0.18130696,0.07312209,-0.038354572,0.054698005,-0.03981606,-0.48633215,-1.3606768,-1.329958,-2.3181093,0.0009503523,48.948917,0.41153574,0.66073436,0.42985433,0.1606509,0.113595665,inf,inf,inf,inf,1,1,1,1,2,0,2,1,3,1,1,0
637554294,167894030,36.204817999999996,138.25291959999998,-0.2636345,-0.3648361,-3.202743,-0.039897293,0.04249571,0.0,0.03961681,0.093466006,0.19304062,0.09133353,-0.038354572,0.054698005,-0.03981606,-2.2700233,-0.2542474,0.015969109,-2.3210633,0.0009503523,48.948917,0.39740062,0.6485129,0.424974,0.15359142,0.1112037,inf,inf,inf,inf,1,1,1,1,2,0,2,1,3,1,1,0
637654277,167894030,36.204817999999996,138.25291959999998,-0.25840437,-0.36844996,-3.1934645,-0.039897293,0.04249571,0.0,0.05951549,0.12317158,0.17294744,0.07328543,-0.038354572,0.054698005,-0.03981606,-5.649888,8.14732,-3.8474617,-2.3197062,0.0009503523,48.948917,0.38812208,0.6548384,0.42601296,0.15795337,0.11239318,inf,inf,inf,inf,1,1,1,1,2,0,2,1,3,1,1,0
637754259,167894030,36.204817999999996,138.25291959999998,-0.25124818,-0.368369,-3.1816878,-0.039897293,0.04249571,0.0,0.05297569,0.10523905,0.18820189,0.09342823,-0.038354572,0.054698005,-0.03981606,-0.2504739,-0.23536313,-0.36080247,-2.3187542,0.0009503523,48.948917,0.3763454,0.6445475,0.42565152,0.15342227,0.111169495,inf,inf,inf,inf,1,1,1,1,2,0,2,1,3,1,1,0
637854241,167894030,36.204817999999996,138.25291959999998,-0.24435905,-0.36977917,-3.1701305,-0.039897293,0.04249571,0.0,0.07257595,0.09681263,0.18662766,0.094439805,-0.038354572,0.054698005,-0.03981606,2.3630605,-0.15480398,-1.2402178,-2.3154526,0.0009503523,48.948917,0.36478806,0.6507812,0.42672983,0.15791167,0.11238824,inf,inf,inf,inf,1,1,1,1,2,0,2,1,3,1,1,0
637954223,167894030,36.204817999999996,138.25291959999998,-0.23684064,-0.36931294,-3.1582005,-0.039897293,0.04249571,0.0,0.051896844,0.102530636,0.16556832,0.07797935,-0.038354572,0.054698005,-0.03981606,-5.5400834,7.988652,-0.28232068,-2.3123264,0.0009503523,48.948917,0.35285807,0.64100975,0.42356443,0.15376045,0.11099171,inf,inf,inf,inf,1,1,1,1,2,0,2,1,3,1,1,0
638054205,167894030,36.204817999999996,138.25291959999998,-0.22936387,-0.37329704,-3.14947,-0.039897293,0.04249571,0.0,0.08206541,0.06816834,0.15784994,0.07211294,-0.038354572,0.054698005,-0.03981606,4.7281,-3.4826741,0.7315174,-2.3095026,0.0009503523,48.948917,0.34412766,0.6472065,0.42466405,0.15830016,0.112216875,inf,inf,inf,inf,1,1,1,1,2,0,2,1,3,1,1,0
638154187,167894030,36.204817999999996,138.25291959999998,-0.22194253,-0.37521234,-3.1423597,-0.039897293,0.04249571,0.0,0.0505554,0.09098127,0.12526762,0.042127166,-0.038354572,0.054698005,-0.03981606,-3.5521157,6.7201962,-1.042307,-2.307205,0.0009503523,48.948917,0.3370173,0.63782173,0.4217898,0.15472636,0.1109788,inf,inf,inf,inf,1,1,1,1,2,0,2,1,3,1,1,0
638254170,167894030,36.204817999999996,138.25291959999998,-0.21573253,-0.37878802,-3.1354258,-0.039897293,0.04249571,0.0,0.06306258,0.04840818,0.16403487,0.082416855,-0.038354572,0.054698005,-0.03981606,0.7840265,-4.418989,3.228347,-2.3048735,0.0009503523,48.948917,0.33008337,0.64402443,0.4229259,0.15937182,0.112211175,inf,inf,inf,inf,1,1,1,1,2,0,2,1,3,1,1,0
638354151,167894030,36.204817999999996,138.25291959999998,-0.2094668,-0.38061115,-3.1217256,-0.039897293,0.04249571,0.0,0.07175833,0.05113823,0.20463566,0.12694329,-0.038354572,0.054698005,-0.03981606,5.865725,-1.1251539,1.0564736,-2.3041778,0.0009503523,48.948917,0.31638312,0.6340257,0.42258137,0.15445396,0.11095351,inf,inf,inf,inf,1,1,1,1,2,0,2,1,3,1,1,0
638454133,167894030,36.204817999999996,138.25291959999998,-0.20397764,-0.3836214,-3.1084898,-0.039897293,0.04249571,0.0,0.048038516,0.023049707,0.19636697,0.11986077,-0.038354572,0.054698005,-0.03981606,0.7161744,-4.118519,-0.71057725,-2.3062038,0.0009503523,48.948917,0.30314732,0.64016014,0.42373413,0.15875718,0.11219202,inf,inf,inf,inf,1,1,1,1,2,0,2,1,3,1,1,0
638554120,167894030,36.204817999999996,138.25291959999998,-0.19898939,-0.38618776,-3.0987184,-0.039897293,0.04249571,0.0,0.0636847,0.031117428,0.16104628,0.08406091,-0.038354572,0.054698005,-0.03981606,2.9848921,-4.7543283,1.022512,-2.3057537,0.0009503523,48.948917,0.29337597,0.6295778,0.41969997,0.1527609,0.110209994,inf,inf,inf,inf,1,1,1,1,2,0,2,1,3,1,1,0
638654099,167894030,36.204817999999996,138.25291959999998,-0.19704552,-0.38814688,-3.09801,-0.039897293,0.04249571,0.0,0.041369066,0.043331858,0.1395086,0.0573071,-0.038354572,0.054698005,-0.03981606,0.87790865,-3.1498082,1.2465109,-2.3112452,0.0009503523,48.948917,0.29266763,0.6355702,0.42085403,0.15722522,0.111461304,inf,inf,inf,inf,1,1,1,1,2,0,2,1,3,1,1,0
638754084,167894030,36.204817999999996,138.25291959999998,-0.19492969,-0.38720247,-3.0932498,-0.039897293,0.04249571,0.0,0.060957897,0.061410297,0.13973475,0.05745332,-0.038354572,0.054698005,-0.03981606,4.503208,-0.36067504,3.4569302,-2.31659,0.0009503523,48.948917,0.28790736,0.62488633,0.41664624,0.15103745,0.109330915,inf,inf,inf,inf,1,1,1,1,2,0,2,1,3,1,1,0
638854063,167894030,36.204817999999996,138.25291959999998,-0.19594373,-0.38406757,-3.089643,-0.039897293,0.04249571,0.0,0.03467851,0.071970426,0.13111308,0.047487266,-0.038354572,0.054698005,-0.03981606,-1.911167,-1.1703855,-0.3416932,-2.32164,0.0009503523,48.948917,0.28430057,0.6307109,0.41780618,0.15550584,0.11060065,inf,inf,inf,inf,1,1,1,1,2,0,2,1,3,1,1,0
638954044,167894030,36.204817999999996,138.25291959999998,-0.19524051,-0.3786825,-3.082956,-0.039897293,0.04249571,0.0,0.040593863,0.08622984,0.1510172,0.06986192,-0.038354572,0.054698005,-0.03981606,-2.84136,-0.996038,5.208132,-2.3262486,0.0009503523,48.948917,0.27761364,0.62034816,0.41378057,0.14944369,0.1085583,inf,inf,inf,inf,1,1,1,1,2,0,2,1,3,1,1,0
639054036,167894030,36.204817999999996,138.25291959999998,-0.1890243,-0.37587136,-3.0776627,-0.039897293,0.04249571,0.0,0.04476215,0.10413373,0.16537058,0.08301187,-0.038354572,0.054698005,-0.03981606,-3.2757409,-0.093365096,4.3020515,-2.3344176,0.0009503523,48.948917,0.27232027,0.6260327,0.41788566,0.15392214,0.11016761,inf,inf,inf,inf,1,1,1,1,2,0,2,1,3,1,1,0
639154024,167894030,36.204817999999996,138.25291959999998,-0.18276566,-0.3707826,-3.069174,-0.039897293,0.04249571,0.0,0.044408143,0.139601,0.12456119,0.04450719,-0.038354572,0.054698005,-0.03981606,-4.726752,8.354721,-5.1049805,-2.3386526,0.0009503523,48.948917,0.26383162,0.61665356,0.41465798,0.14932072,0.108631805,inf,inf,inf,inf,1,1,1,1,2,0,2,1,3,1,1,0
639253991,167894030,36.204817999999996,138.25291959999998,-0.17462644,-0.3685206,-3.0642354,-0.039897293,0.04249571,0.0,0.086425655,0.11049864,0.12889796,0.048972603,-0.038354572,0.054698005,-0.03981606,5.5209193,-2.1266947,-1.4093953,-2.3382185,0.0009503523,48.948917,0.258893,0.62231386,0.41585633,0.1537768,0.1099273,inf,inf,inf,inf,1,1,1,1,2,0,2,1,3,1,1,0
639353972,167894030,36.204817999999996,138.25291959999998,-0.16698883,-0.36529124,-3.0565915,-0.039897293,0.04249571,0.0,0.06442674,0.09842894,0.13834946,0.06097625,-0.038354572,0.054698005,-0.03981606,5.2752166,0.91353345,-1.0177273,-2.337729,0.0009503523,48.948917,0.25124907,0.61288327,0.41258016,0.14918366,0.1083313,inf,inf,inf,inf,1,1,1,1,2,0,2,1,3,1,1,0
639453954,167894030,36.204817999999996,138.25291959999998,-0.16184053,-0.36784762,-3.047806,-0.039897293,0.04249571,0.0,0.05275991,0.0865207,0.14763147,0.0724593,-0.038354572,0.054698005,-0.03981606,1.698852,-3.5028632,0.110624425,-2.334959,0.0009503523,48.948917,0.24246359,0.61851066,0.41379136,0.1536739,0.109636806,inf,inf,inf,inf,1,1,1,1,2,0,2,1,3,1,1,0
639553936,167894030,36.204817999999996,138.25291959999998,-0.15694407,-0.3675929,-3.0371206,-0.039897293,0.04249571,0.0,0.041370023,0.059630953,0.17211087,0.100889,-0.038354572,0.054698005,-0.03981606,4.0859704,-9.436093,2.7987916,-2.3323913,0.0009503523,48.948917,0.23177814,0.60860693,0.41005105,0.14787191,0.1076998,inf,inf,inf,inf,1,1,1,1,2,0,2,1,3,1,1,0
639653918,167894030,36.204817999999996,138.25291959999998,-0.15643153,-0.3701428,-3.0255835,-0.039897293,0.04249571,0.0,-0.006442663,0.07764511,0.16365546,0.0941265,-0.038354572,0.054698005,-0.03981606,-7.900762,4.0469775,-0.1968321,-2.3289187,0.0009503523,48.948917,0.22024107,0.6141384,0.41126254,0.15241559,0.10901819,inf,inf,inf,inf,1,1,1,1,2,0,2,1,3,1,1,0
639753907,167894030,36.204817999999996,138.25291959999998,-0.15603279,-0.37002733,-3.021304,-0.039897293,0.04249571,0.0,-0.006196033,0.073386416,0.030416181,-0.03610331,-0.038354572,0.054698005,-0.03981606,-2.9640286,-3.923173,0.7914996,-2.3275456,0.0009503523,48.948917,0.21596146,0.6053149,0.41130164,0.14829971,0.10798891,inf,inf,inf,inf,1,1,1,1,2,0,2,1,3,1,1,0
639853882,167894030,36.204817999999996,138.25291959999998,-0.15242733,-0.36790773,-3.0260708,-0.039897293,0.04249571,0.0,0.017639939,0.18509072,0.003009783,-0.0616319,-0.038354572,0.054698005,-0.03981606,-0.50764763,5.8616357,0.6553179,-2.3444817,0.0009503523,48.948917,0.2207284,0.61088026,0.4125706,0.15308003,0.10931642,inf,inf,inf,inf,1,1,1,1,2,0,2,1,3,1,1,0
639953864,167894030,36.204817999999996,138.25291959999998,-0.14561936,-0.3501,-3.0302916,-0.039897293,0.04249571,0.0,0.08301321,0.35172966,-0.07502208,-0.13440165,-0.038354572,0.054698005,-0.03981606,-0.43940797,6.3051777,-6.5803447,-2.3942423,0.0009503523,48.948917,0.22494912,0.6012435,0.40894663,0.14795692,0.10744023,inf,inf,inf,inf,1,1,1,1,2,0,2,1,3,1,1,0
640053846,167894030,36.204817999999996,138.25291959999998,-0.13348238,-0.31561357,-3.0402615,-0.039897293,0.04249571,0.0,0.14648183,0.47250837,-0.20595221,-0.25594944,-0.038354572,0.054698005,-0.03981606,-0.9326399,0.9920945,-6.3870664,-2.4728174,0.0009503523,48.948917,0.23491907,0.6067333,0.41021708,0.15248264,0.10880273,inf,inf,inf,inf,1,1,1,1,2,0,2,1,3,1,1,0
640153830,167894030,36.204817999999996,138.25291959999998,-0.11662743,-0.27828267,-3.0594976,-0.039897293,0.04249571,0.0,0.18371455,0.3993544,-0.23839685,-0.27968174,-0.038354572,0.054698005,-0.03981606,1.7530866,-2.827047,-0.18764421,-2.5439715,0.0009503523,48.948917,0.25415516,0.5987239,0.40812594,0.15007243,0.10794732,inf,inf,inf,inf,1,1,1,1,2,0,2,1,3,1,1,0
640253810,167894030,36.204817999999996,138.25291959999998,-0.09896739,-0.2654687,-3.0738268,-0.039897293,0.04249571,0.0,0.18589538,0.28352842,-0.24706307,-0.2749627,-0.038354572,0.054698005,-0.03981606,-3.1973722,4.1470084,-0.9528271,-2.5585196,0.0009503523,48.948917,0.26848435,0.60434675,0.4094345,0.15525612,0.10931866,inf,inf,inf,inf,1,1,1,1,2,0,2,1,3,1,1,0
640353793,167894030,36.204817999999996,138.25291959999998,-0.08313864,-0.2601963,-3.084091,-0.039897293,0.04249571,0.0,0.19233844,0.19979894,-0.18691802,-0.19947723,-0.038354572,0.054698005,-0.03981606,4.8922954,-2.284567,-2.3013732,-2.5441601,0.0009503523,48.948917,0.2787485,0.5967454,0.4076699,0.15296842,0.10857075,inf,inf,inf,inf,1,1,1,1,2,0,2,1,3,1,1,0
640453774,167894030,36.204817999999996,138.25291959999998,-0.07561369,-0.26826853,-3.0696454,-0.039897293,0.04249571,0.0,0.17762205,0.14165758,-0.05060131,-0.037178535,-0.038354572,0.054698005,-0.03981606,3.6038055,1.5256255,-1.7113656,-2.5138958,0.0009503523,48.948917,0.26430297,0.6025531,0.4090301,0.15761985,0.10987759,inf,inf,inf,inf,1,1,1,1,2,0,2,1,3,1,1,0
640553756,167894030,36.204817999999996,138.25291959999998,-0.068903245,-0.2762725,-3.0450542,-0.039897293,0.04249571,0.0,0.123203136,0.13867307,0.051597584,0.08518772,-0.038354572,0.054698005,-0.03981606,-4.7005224,11.751281,-2.0633202,-2.4754891,0.0009503523,48.948917,0.23971176,0.5952011,0.41024768,0.15491088,0.10952207,inf,inf,inf,inf,1,1,1,1,2,0,2,1,3,1,1,0
640653745,167894030,36.204817999999996,138.25291959999998,-0.06729824,-0.28782117,-3.0111873,-0.039897293,0.04249571,0.0,0.09460885,0.06088689,0.08115524,0.13581058,-0.038354572,0.054698005,-0.03981606,-1.6815113,-4.734492,-0.7505762,-2.4345815,0.0009503523,48.948917,0.20584488,0.6012177,0.4116896,0.15897875,0.11084935,inf,inf,inf,inf,1,1,1,1,2,0,2,1,3,1,1,0
640753720,167894030,36.204817999999996,138.25291959999998,-0.06728076,-0.2969229,-2.9825954,-0.039897293,0.04249571,0.0,0.0535139,0.039964885,0.091707155,0.15874653,-0.038354572,0.054698005,-0.03981606,0.5758696,-3.80262,2.5691605,-2.3935885,0.0009503523,48.948917,0.17725301,0.59459543,0.4106987,0.1575472,0.110543005,inf,inf,inf,inf,1,1,1,1,2,0,2,1,3,1,1,0
640853715,167894030,36.204817999999996,138.25291959999998,-0.06781495,-0.30776846,-2.9573615,-0.039897293,0.04249571,0.0,0.0057948274,0.04622098,0.07387258,0.14807801,-0.038354572,0.054698005,-0.03981606,-3.3558664,2.6805964,-3.7014074,-2.357299,0.0009503523,48.948917,0.15201902,0.60091263,0.41218495,0.1622946,0.111859754,inf,inf,inf,inf,1,1,1,1,2,0,2,1,3,1,1,0
640953702,167894030,36.204817999999996,138.25291959999998,-0.07096899,-0.3144688,-2.9364555,-0.039897293,0.04249571,0.0,-0.037160117,0.06134552,0.083867855,0.16025034,-0.038354572,0.054698005,-0.03981606,-7.600634,6.650383,-1.0216719,-2.3258324,0.0009503523,48.948917,0.13111305,0.5934294,0.4105072,0.15930437,0.111071914,inf,inf,inf,inf,1,1,1,1,2,0,2,1,3,1,1,0
641053666,167894030,36.204817999999996,138.25291959999998,-0.07667384,-0.3180074,-2.919541,-0.039897293,0.04249571,0.0,-0.051286004,0.035614844,0.124651864,0.19791783,-0.038354572,0.054698005,-0.03981606,-5.021178,3.0207748,1.6083548,-2.3018851,0.0009503523,48.948917,0.114198446,0.5999434,0.4120351,0.16401604,0.11237852,inf,inf,inf,inf,1,1,1,1,2,0,2,1,3,1,1,0
641153647,167894030,36.204817999999996,138.25291959999998,-0.08282085,-0.3199715,-2.9048903,-0.039897293,0.04249571,0.0,-0.043097407,0.037177585,0.07420513,0.14240427,-0.038354572,0.054698005,-0.03981606,-0.8934228,1.7144454,-0.5228331,-2.281165,0.0009503523,48.948917,0.1,0.5929299,0.41073158,0.16176783,0.11181532,inf,inf,inf,inf,1,1,1,1,2,0,2,1,3,1,1,0
641253629,167894030,36.204817999999996,138.25291959999998,-0.08569214,-0.32200688,-2.8956165,-0.039897293,0.04249571,0.0,-0.025448073,0.021966679,0.051730357,0.11513329,-0.038354572,0.054698005,-0.03981606,8.594392,0.50720817,-0.6046857,-2.2669792,0.0009503523,48.948917,0.1,0.599701,0.4151977,0.16633306,0.113439426,inf,inf,inf,inf,1,1,1,1,2,0,2,1,3,1,1,0
641353611,167894030,36.204817999999996,138.25291959999998,-0.08959737,-0.323355,-2.8886132,-0.039897293,0.04249571,0.0,-0.06647667,-0.0025771456,0.06390346,0.12122678,-0.038354572,0.054698005,-0.03981606,-1.6337148,-5.178956,3.259637,-2.2564447,0.0009503523,48.948917,0.1,0.5924064,0.41374278,0.16375762,0.11275542,inf,inf,inf,inf,1,1,1,1,2,0,2,1,3,1,1,0
641453593,167894030,36.204817999999996,138.25291959999998,-0.09127049,-0.32581535,-2.8820422,-0.039897293,0.04249571,0.0,-0.0927731,0.018241085,0.049627952,0.10174059,-0.038354572,0.054698005,-0.03981606,-2.350905,4.2875605,-0.18080968,-2.2500653,0.0009503523,48.948917,0.1,0.59941053,0.41537073,0.16850178,0.11403492,inf,inf,inf,inf,1,1,1,1,2,0,2,1,3,1,1,0
641553575,167894030,36.204817999999996,138.25291959999998,-0.0934676,-0.32827726,-2.8770995,-0.039897293,0.04249571,0.0,-0.07603377,-0.01229436,0.022048404,0.06912861,-0.038354572,0.054698005,-0.03981606,4.007508,-5.709592,-1.6741025,-2.246367,0.0009503523,48.948917,0.1,0.5907543,0.41301972,0.1635517,0.11274716,inf,inf,inf,inf,1,1,1,1,2,0,2,1,3,1,1,0
641653557,167894030,36.204817999999996,138.25291959999998,-0.09147049,-0.3300994,-2.8743885,-0.039897293,0.04249571,0.0,-0.06646757,-0.011861062,0.011643842,0.053892408,-0.038354572,0.054698005,-0.03981606,4.8093204,-2.0544276,-1.8694489,-2.2457275,0.0009503523,48.948917,0.1,0.59782654,0.41466287,0.16827625,0.11402535,inf,inf,inf,inf,1,1,1,1,2,0,2,1,3,1,1,0
641753539,167894030,36.204817999999996,138.25291959999998,-0.08883096,-0.33017516,-2.8729272,-0.039897293,0.04249571,0.0,-0.065671496,0.01882113,0.003544356,0.040931225,-0.038354572,0.054698005,-0.03981606,-7.716519,0.09341168,-2.9228072,-2.246589,0.0009503523,48.948917,0.1,0.5888015,0.4120922,0.16291717,0.112584956,inf,inf,inf,inf,1,1,1,1,2,0,2,1,3,1,1,0
641853521,167894030,36.204817999999996,138.25291959999998,-0.07650981,-0.32797337,-2.873694,-0.039897293,0.04249571,0.0,-0.0009889947,0.06438,0.004004268,0.03557849,-0.038354572,0.054698005,-0.03981606,-5.724861,8.806363,0.691649,-2.2488184,0.0009503523,48.948917,0.1,0.59589964,0.41372278,0.16760935,0.11385046,inf,inf,inf,inf,1,1,1,1,2,0,2,1,3,1,1,0
641953503,167894030,36.204817999999996,138.25291959999998,-0.059708215,-0.3229815,-2.8771098,-0.039897293,0.04249571,0.0,0.07937575,0.08615156,-0.012800189,0.012704023,-0.038354572,0.054698005,-0.03981606,-3.4229374,4.882346,0.55597407,-2.2549114,0.0009503523,48.948917,0.1,0.58490425,0.41260454,0.15920329,0.11184215,inf,inf,inf,inf,1,1,1,1,2,0,2,1,3,1,1,0
642053486,167894030,36.204817999999996,138.25291959999998,-0.037514783,-0.31857982,-2.8779378,-0.039897293,0.04249571,0.0,0.16521658,0.06654746,0.005192803,0.027136682,-0.038354572,0.054698005,-0.03981606,2.5910456,-4.348038,-1.9663545,-2.2631495,0.0009503523,48.948917,0.1,0.59178644,0.41424343,0.16392513,0.11312155,inf,inf,inf,inf,1,1,1,1,2,0,2,1,3,1,1,0
642153466,167894030,36.204817999999996,138.25291959999998,-0.013738815,-0.3137888,-2.87651,-0.039897293,0.04249571,0.0,0.17923403,0.07139208,0.03063111,0.049038563,-0.038354572,0.054698005,-0.03981606,-3.7376835,9.243728,-1.0468931,-2.2687132,0.0009503523,48.948917,0.1,0.58118373,0.4103547,0.15627041,0.11085163,inf,inf,inf,inf,1,1,1,1,2,0,2,1,3,1,1,0
642253450,167894030,36.204817999999996,138.25291959999998,0.0022191128,-0.3157809,-2.876782,-0.039897293,0.04249571,0.0,0.14576651,0.020489095,0.006866006,0.021132909,-0.038354572,0.054698005,-0.03981606,7.973353,-0.6777181,-1.6971933,-2.2708528,0.0009503523,48.948917,0.1,0.5878844,0.4119704,0.16069657,0.11213708,inf,inf,inf,inf,1,1,1,1,2,0,2,1,3,1,1,0
642353430,167894030,36.204817999999996,138.25291959999998,0.009699374,-0.31958228,-2.8796902,-0.039897293,0.04249571,0.0,0.0322118,-0.014306606,-0.004603156,0.00502212,-0.038354572,0.054698005,-0.03981606,-6.8508186,0.15379979,2.661777,-2.2731445,0.0009503523,48.948917,0.10157013,0.57758623,0.4082172,0.15357491,0.1099712,inf,inf,inf,inf,1,1,1,1,2,0,2,1,3,1,1,0
642453412,167894030,36.204817999999996,138.25291959999998,0.000750146,-0.32734665,-2.8838334,-0.039897293,0.04249571,0.0,-0.026196236,-0.034613367,0.036886763,0.040990397,-0.038354572,0.054698005,-0.03981606,-0.8317038,-0.731646,1.8195385,-2.2780783,0.0009503523,48.948917,0.10571337,0.58413327,0.40978423,0.15806556,0.11125211,inf,inf,inf,inf,1,1,1,1,2,0,2,1,3,1,1,0
642553394,167894030,36.204817999999996,138.25291959999998,-0.011519525,-0.3338579,-2.8862748,-0.039897293,0.04249571,0.0,-0.08379804,-0.019291997,0.027138617,0.02585735,-0.038354572,0.054698005,-0.03981606,-4.8380694,5.3132124,2.2370284,-2.2807038,0.0009503523,48.948917,0.10815477,0.57487386,0.40958542,0.15277769,0.109896876,inf,inf,inf,inf,1,1,1,1,2,0,2,1,3,1,1,0
642653384,167894030,36.204817999999996,138.25291959999998,-0.02321572,-0.33670938,-2.8908007,-0.039897293,0.04249571,0.0,-0.076420635,-0.03273343,0.0022570663,-0.0051975744,-0.038354572,0.054698005,-0.03981606,0.43297932,2.5196326,-2.3904457,-2.2820933,0.0009503523,48.948917,0.11268067,0.5813901,0.41117507,0.15706368,0.11119058,inf,inf,inf,inf,1,1,1,1,2,0,2,1,3,1,1,0
642753358,167894030,36.204817999999996,138.25291959999998,-0.031448323,-0.34081545,-2.8960633,-0.039897293,0.04249571,0.0,-0.026217671,-0.07855986,-0.028963206,-0.039704867,-0.038354572,0.054698005,-0.03981606,6.0216756,-3.0245433,-0.098595455,-2.283186,0.0009503523,48.948917,0.11794329,0.57193744,0.40802452,0.15157819,0.109436594,inf,inf,inf,inf,1,1,1,1,2,0,2,1,3,1,1,0
642853340,167894030,36.204817999999996,138.25291959999998,-0.028996978,-0.3447308,-2.9037077,-0.039897293,0.04249571,0.0,-0.01370716,-0.090210095,-0.019723771,-0.035021137,-0.038354572,0.054698005,-0.03981606,-0.22765385,2.6568682,0.5584298,-2.2849448,0.0009503523,48.948917,0.1255877,0.5784048,0.40961105,0.15621187,0.110738255,inf,inf,inf,inf,1,1,1,1,2,0,2,1,3,1,1,0
642953321,167894030,36.204817999999996,138.25291959999998,-0.025053252,-0.35139608,-2.9070985,-0.039897293,0.04249571,0.0,0.0015008703,-0.12532622,0.0029846942,-0.013549573,-0.038354572,0.054698005,-0.03981606,-4.116692,-1.0328852,-0.69761753,-2.2859235,0.0009503523,48.948917,0.12897849,0.56839824,0.40603656,0.14986637,0.108704485,inf,inf,inf,inf,1,1,1,1,2,0,2,1,3,1,1,0
643053303,167894030,36.204817999999996,138.25291959999998,-0.017677054,-0.35135475,-2.9077237,-0.039897293,0.04249571,0.0,0.004962796,-0.09569816,0.03839509,0.020211574,-0.038354572,0.054698005,-0.03981606,-2.7593372,-0.71966916,-1.7919593,-2.2863379,0.0009503523,48.948917,0.12960362,0.5747526,0.40758985,0.1542939,0.11000492,inf,inf,inf,inf,1,1,1,1,2,0,2,1,3,1,1,0
643153285,167894030,36.204817999999996,138.25291959999998,-0.013078831,-0.34994528,-2.905341,-0.039897293,0.04249571,0.0,-0.0024414582,-0.07757634,0.06310019,0.04388289,-0.038354572,0.054698005,-0.03981606,1.0859915,-0.55099857,-0.6244001,-2.2880049,0.0009503523,48.948917,0.12722087,0.56491435,0.40412337,0.14816256,0.10803973,inf,inf,inf,inf,1,1,1,1,2,0,2,1,3,1,1,0
643253267,167894030,36.204817999999996,138.25291959999998,-0.011178874,-0.33700973,-2.9062138,-0.039897293,0.04249571,0.0,-0.03384073,-0.018709496,0.060253795,0.036280457,-0.038354572,0.054698005,-0.03981606,-0.08320454,2.8696885,1.0781946,-2.2891428,0.0009503523,48.948917,0.12809372,0.5711689,0.40566543,0.15248011,0.10934743,inf,inf,inf,inf,1,1,1,1,2,0,2,1,3,1,1,0
643353249,167894030,36.204817999999996,138.25291959999998,-0.011926849,-0.3247328,-2.909111,-0.039897293,0.04249571,0.0,-0.023594052,0.0010626032,0.031368904,0.0036443972,-0.038354572,0.054698005,-0.03981606,6.8803525,2.338237,-3.0013566,-2.2892966,0.0009503523,48.948917,0.13099098,0.56147975,0.4049916,0.14672399,0.10773564,inf,inf,inf,inf,1,1,1,1,2,0,2,1,3,1,1,0
643453230,167894030,36.204817999999996,138.25291959999998,-0.01212186,-0.3132836,-2.9149091,-0.039897293,0.04249571,0.0,-0.036742713,0.0008959918,0.015811654,-0.01665147,-0.038354572,0.054698005,-0.03981606,1.9609545,0.64141774,1.2105035,-2.2889383,0.0009503523,48.948917,0.13678908,0.5676506,0.40654632,0.15119451,0.10906023,inf,inf,inf,inf,1,1,1,1,2,0,2,1,3,1,1,0
643553212,167894030,36.204817999999996,138.25291959999998,-0.012781955,-0.30460927,-2.92575,-0.039897293,0.04249571,0.0,-0.047634568,0.00020277599,-0.14698637,-0.18079087,-0.038354572,0.054698005,-0.03981606,-5.543906,3.304547,-2.2955132,-2.2858818,0.0009503523,48.948917,0.14762998,0.55816734,0.40327522,0.14588213,0.1072364,inf,inf,inf,inf,1,1,1,1,2,0,2,1,3,1,1,0
643653194,167894030,36.204817999999996,138.25291959999998,-0.013141189,-0.29654384,-2.9569387,-0.039897293,0.04249571,0.0,-0.021839488,-0.029185643,-0.35684738,-0.3920156,-0.038354572,0.054698005,-0.03981606,2.8222036,-4.041031,-5.9283853,-2.283271,0.0009503523,48.948917,0.1788187,0.56427866,0.4048157,0.15047899,0.10856631,inf,inf,inf,inf,1,1,1,1,2,0,2,1,3,1,1,0
643753176,167894030,36.204817999999996,138.25291959999998,-0.013230988,-0.2913439,-2.9941633,-0.039897293,0.04249571,0.0,-0.036063727,-0.018069873,-0.33759987,-0.3702291,-0.038354572,0.054698005,-0.03981606,-1.6510028,1.3013908,1.2882097,-2.285066,0.0009503523,48.948917,0.21604323,0.5548508,0.4015635,0.1458234,0.10674938,inf,inf,inf,inf,1,1,1,1,2,0,2,1,3,1,1,0
643853158,167894030,36.204817999999996,138.25291959999998,-0.0076407013,-0.28686062,-3.012646,-0.039897293,0.04249571,0.0,-0.010006756,-0.044064634,-0.18732725,-0.20780182,-0.038354572,0.054698005,-0.03981606,2.0514307,-4.920953,1.2513658,-2.2885418,0.0009503523,48.948917,0.23452592,0.5609147,0.4030991,0.1508062,0.10808649,inf,inf,inf,inf,1,1,1,1,2,0,2,1,3,1,1,0
643953139,167894030,36.204817999999996,138.25291959999998,-0.0020601775,-0.28457838,-3.0141656,-0.039897293,0.04249571,0.0,0.02366899,-0.060983475,0.02273441,0.012209982,-0.038354572,0.054698005,-0.03981606,8.250833,-9.223889,6.764497,-2.291539,0.0009503523,48.948917,0.2360456,0.55235,0.40050238,0.14629585,0.10668875,inf,inf,inf,inf,1,1,1,1,2,0,2,1,3,1,1,0
644053122,167894030,36.204817999999996,138.25291959999998,0.009853015,-0.28266418,-2.984427,-0.039897293,0.04249571,0.0,0.037805613,-0.0605539,0.20349956,0.21230957,-0.038354572,0.054698005,-0.03981606,6.390399,-9.354597,1.5673311,-2.2945433,0.0009503523,48.948917,0.20630693,0.5584443,0.40471938,0.15005961,0.108321436,inf,inf,inf,inf,1,1,1,1,2,0,2,1,3,1,1,0
644153103,167894030,36.204817999999996,138.25291959999998,0.019789122,-0.28214025,-2.9467704,-0.039897293,0.04249571,0.0,0.021107074,-0.030673865,0.2499619,0.27102888,-0.038354572,0.054698005,-0.03981606,0.06109909,3.2654529,1.932568,-2.2937155,0.0009503523,48.948917,0.16865039,0.549899,0.40203127,0.1449633,0.10686766,inf,inf,inf,inf,1,1,1,1,2,0,2,1,3,1,1,0
644253085,167894030,36.204817999999996,138.25291959999998,0.022634279,-0.28076515,-2.922243,-0.039897293,0.04249571,0.0,0.0022200397,-0.028418282,0.06909039,0.09447404,-0.038354572,0.054698005,-0.03981606,0.5656303,5.2535553,-0.28857607,-2.2900991,0.0009503523,48.948917,0.14412308,0.5560016,0.4036002,0.14874206,0.10821397,inf,inf,inf,inf,1,1,1,1,2,0,2,1,3,1,1,0
644353118,167894030,36.204817999999996,138.25291959999998,0.02215506,-0.2813394,-2.9266727,-0.039897293,0.04249571,0.0,-0.023598889,-0.06544384,-0.2409971,-0.2160206,-0.038354572,0.054698005,-0.03981606,3.0836897,-7.0841527,-7.023396,-2.2858915,0.0009503523,48.948917,0.14855266,0.5469683,0.40044057,0.14374611,0.10644064,inf,inf,inf,inf,1,1,1,1,2,0,2,1,3,1,1,0
644453046,167894030,36.204817999999996,138.25291959999998,0.015399211,-0.2805001,-2.9712029,-0.039897293,0.04249571,0.0,-0.056642193,-0.04633711,-0.47627378,-0.46108496,-0.038354572,0.054698005,-0.03981606,1.3165759,1.3386807,-0.23001939,-2.2847788,0.0009503523,48.948917,0.19308281,0.55302954,0.4020055,0.14911105,0.10779375,inf,inf,inf,inf,1,1,1,1,2,0,2,1,3,1,1,0
644553031,167894030,36.204817999999996,138.25291959999998,0.006855882,-0.28088406,-3.0215452,-0.039897293,0.04249571,0.0,-0.073732674,-0.056888044,-0.42839754,-0.41780126,-0.038354572,0.054698005,-0.03981606,1.15694,-1.1640314,3.6452677,-2.2871306,0.0009503523,48.948917,0.24342513,0.5441286,0.39891592,0.145137,0.106058456,inf,inf,inf,inf,1,1,1,1,2,0,2,1,3,1,1,0
644653013,167894030,36.204817999999996,138.25291959999998,-0.0010552495,-0.2785264,-3.0433354,-0.039897293,0.04249571,0.0,-0.076604314,-0.06554588,-0.24144676,-0.22021423,-0.038354572,0.054698005,-0.03981606,-0.14993773,-2.1075857,-0.5849997,-2.2913918,0.0009503523,48.948917,0.2652154,0.55017585,0.40046948,0.15021579,0.10741408,inf,inf,inf,inf,1,1,1,1,2,0,2,1,3,1,1,0
644752993,167894030,36.204817999999996,138.25291959999998,-0.0068734325,-0.27701533,-3.045428,-0.039897293,0.04249571,0.0,-0.08649934,-0.038445216,-0.016552657,0.012473375,-0.038354572,0.054698005,-0.03981606,-4.9699607,8.36515,3.615715,-2.295204,0.0009503523,48.948917,0.267308,0.5423694,0.3982245,0.14605471,0.10622318,inf,inf,inf,inf,1,1,1,1,2,0,2,1,3,1,1,0
644852975,167894030,36.204817999999996,138.25291959999998,0.00047440507,-0.26562676,-3.0207388,-0.039897293,0.04249571,0.0,-0.06290477,-0.06852562,0.12904857,0.17187862,-0.038354572,0.054698005,-0.03981606,0.07973937,-4.9472394,5.242866,-2.2971818,0.0009503523,48.948917,0.2426188,0.5484939,0.40243158,0.1495678,0.1078681,inf,inf,inf,inf,1,1,1,1,2,0,2,1,3,1,1,0
644952957,167894030,36.204817999999996,138.25291959999998,0.006198042,-0.25825062,-3.0019634,-0.039897293,0.04249571,0.0,-0.035479184,-0.06778438,0.020278567,0.06753621,-0.038354572,0.054698005,-0.03981606,7.1067543,-3.1174607,-3.927488,-2.297116,0.0009503523,48.948917,0.22384334,0.54213274,0.40128887,0.14727026,0.107398406,inf,inf,inf,inf,1,1,1,1,2,0,2,1,3,1,1,0
645052940,167894030,36.204817999999996,138.25291959999998,0.015745714,-0.2508056,-3.0054512,-0.039897293,0.04249571,0.0,-0.06042564,-0.053737376,-0.07170079,-0.03102896,-0.038354572,0.054698005,-0.03981606,-4.3715043,3.1336591,-2.343263,-2.296683,0.0009503523,48.948917,0.22733116,0.5484887,0.40293282,0.15144175,0.108754314,inf,inf,inf,inf,1,1,1,1,2,0,2,1,3,1,1,0
645152921,167894030,36.204817999999996,138.25291959999998,0.021913556,-0.24777874,-3.0170326,-0.039897293,0.04249571,0.0,-0.025351347,-0.07138716,-0.10975604,-0.07666546,-0.038354572,0.054698005,-0.03981606,9.279196,-3.1053803,2.6751618,-2.2975497,0.0009503523,48.948917,0.23891258,0.5418876,0.40159404,0.14991778,0.10812749,inf,inf,inf,inf,1,1,1,1,2,0,2,1,3,1,1,0
645252902,167894030,36.204817999999996,138.25291959999998,0.02734546,-0.2493753,-3.0320008,-0.039897293,0.04249571,0.0,-0.053572405,-0.06739614,-0.09705422,-0.07251894,-0.038354572,0.054698005,-0.03981606,-3.0731244,0.65562546,1.2053944,-2.298619,0.0009503523,48.948917,0.25388074,0.54847497,0.40326872,0.15472259,0.109471,inf,inf,inf,inf,1,1,1,1,2,0,2,1,3,1,1,0
645352887,167894030,36.204817999999996,138.25291959999998,0.030088054,-0.25240076,-3.0440204,-0.039897293,0.04249571,0.0,-0.033849854,-0.08584006,-0.072967924,-0.056268856,-0.038354572,0.054698005,-0.03981606,3.941745,-2.3983917,-3.2498329,-2.2994297,0.0009503523,48.948917,0.26590037,0.5431516,0.40288812,0.15440573,0.109436266,inf,inf,inf,inf,1,1,1,1,2,0,2,1,3,1,1,0
645452866,167894030,36.204817999999996,138.25291959999998,0.03105965,-0.25270954,-3.0559292,-0.039897293,0.04249571,0.0,-0.04534639,-0.0793743,-0.063881546,-0.054758877,-0.038354572,0.054698005,-0.03981606,-0.10175404,-1.4952046,1.7556819,-2.3001533,0.0009503523,48.948917,0.27780914,0.55012083,0.404614,0.15890434,0.11076294,inf,inf,inf,inf,1,1,1,1,2,0,2,1,3,1,1,0
645552847,167894030,36.204817999999996,138.25291959999998,0.030488165,-0.254656,-3.0670815,-0.039897293,0.04249571,0.0,-0.039157912,-0.09468122,-0.07760907,-0.07431404,-0.038354572,0.054698005,-0.03981606,4.791768,-7.4077587,-1.6659008,-2.3020663,0.0009503523,48.948917,0.2889614,0.54447323,0.4067808,0.15781157,0.11089149,inf,inf,inf,inf,1,1,1,1,2,0,2,1,3,1,1,0
645652829,167894030,36.204817999999996,138.25291959999998,0.030146869,-0.25262588,-3.0820563,-0.039897293,0.04249571,0.0,-0.04302846,-0.07746886,-0.108480394,-0.11134068,-0.038354572,0.054698005,-0.03981606,0.40944257,0.2666823,1.5701185,-2.3035254,0.0009503523,48.948917,0.30393624,0.55179405,0.4085931,0.16243456,0.11221234,inf,inf,inf,inf,1,1,1,1,2,0,2,1,3,1,1,0
645752813,167894030,36.204817999999996,138.25291959999998,0.028679153,-0.25274923,-3.096622,-0.039897293,0.04249571,0.0,-0.054784905,-0.078798674,-0.10312535,-0.109292865,-0.038354572,0.054698005,-0.03981606,-1.6588988,-1.7093526,-0.1938397,-2.3054566,0.0009503523,48.948917,0.31850195,0.5446066,0.40709782,0.15928821,0.11139467,inf,inf,inf,inf,1,1,1,1,2,0,2,1,3,1,1,0
645852794,167894030,36.204817999999996,138.25291959999998,0.026479343,-0.2480658,-3.1079533,-0.039897293,0.04249571,0.0,-0.05677128,-0.07106746,-0.04650754,-0.056248065,-0.038354572,0.054698005,-0.03981606,-2.0954196,3.694414,-0.25835916,-2.3069706,0.0009503523,48.948917,0.32983327,0.552118,0.40892306,0.16407362,0.11270094,inf,inf,inf,inf,1,1,1,1,2,0,2,1,3,1,1,0
645952774,167894030,36.204817999999996,138.25291959999998,0.023621662,-0.24618216,-3.1176703,-0.039897293,0.04249571,0.0,-0.053461336,-0.06652125,-0.052405853,-0.06609276,-0.038354572,0.054698005,-0.03981606,2.4847264,4.3337255,0.036713287,-2.3083136,0.0009503523,48.948917,0.33955026,0.5427866,0.4061107,0.15787053,0.11103017,inf,inf,inf,inf,1,1,1,1,2,0,2,1,3,1,1,0
646052756,167894030,36.204817999999996,138.25291959999998,0.024418605,-0.24107313,-3.1284587,-0.039897293,0.04249571,0.0,-0.03784379,-0.08517019,-0.06714498,-0.08419189,-0.038354572,0.054698005,-0.03981606,7.3535905,-1.3863059,-2.3635733,-2.3086495,0.0009503523,48.948917,0.3503387,0.55024344,0.4079142,0.16234195,0.11232948,inf,inf,inf,inf,1,1,1,1,2,0,2,1,3,1,1,0
646152762,167894030,36.204817999999996,138.25291959999998,0.023629,-0.23897345,-3.13921,-0.039897293,0.04249571,0.0,-0.059553977,-0.09513438,-0.0757111,-0.094185285,-0.038354572,0.054698005,-0.03981606,1.9487984,-6.1889606,2.0877836,-2.309365,0.0009503523,48.948917,0.36108994,0.53976196,0.40430865,0.15486905,0.11015423,inf,inf,inf,inf,1,1,1,1,2,0,2,1,3,1,1,0
646252721,167894030,36.204817999999996,138.25291959999998,0.024659133,-0.23411421,-3.147293,-0.039897293,0.04249571,0.0,-0.07746951,-0.09241873,-0.023768334,-0.04103899,-0.038354572,0.054698005,-0.03981606,-7.0297084,-3.283827,3.5862308,-2.3107023,0.0009503523,48.948917,0.36917305,0.5470323,0.40884206,0.15948495,0.11178774,inf,inf,inf,inf,1,1,1,1,2,0,2,1,3,1,1,0
646352700,167894030,36.204817999999996,138.25291959999998,0.025002582,-0.2327868,-3.1490242,-0.039897293,0.04249571,0.0,-0.05798471,-0.089064606,-0.0073655206,-0.024112312,-0.038354572,0.054698005,-0.03981606,-0.46433884,-0.4217353,0.5687539,-2.3119044,0.0009503523,48.948917,0.3709042,0.53686166,0.40528038,0.15251029,0.10967491,inf,inf,inf,inf,1,1,1,1,2,0,2,1,3,1,1,0
646452682,167894030,36.204817999999996,138.25291959999998,0.027593719,-0.2288737,-3.1480303,-0.039897293,0.04249571,0.0,-0.04308629,-0.08673853,-0.029002765,-0.0411596,-0.038354572,0.054698005,-0.03981606,2.3480227,0.32287136,-1.7767086,-2.3123472,0.0009503523,48.948917,0.36991024,0.5439714,0.4070509,0.15664364,0.11098957,inf,inf,inf,inf,1,1,1,1,2,0,2,1,3,1,1,0
646552664,167894030,36.204817999999996,138.25291959999998,0.02869725,-0.22769439,-3.1503856,-0.039897293,0.04249571,0.0,-0.055280082,-0.07752392,-0.01042955,-0.021483999,-0.038354572,0.054698005,-0.03981606,-0.9490274,2.333071,1.553244,-2.312186,0.0009503523,48.948917,0.37226558,0.53407377,0.40356997,0.1502592,0.108940944,inf,inf,inf,inf,1,1,1,1,2,0,2,1,3,1,1,0
646652645,167894030,36.204817999999996,138.25291959999998,0.033325214,-0.22195499,-3.1524792,-0.039897293,0.04249571,0.0,-0.03363596,-0.08792272,-0.028113753,-0.03862923,-0.038354572,0.054698005,-0.03981606,5.444428,-0.15761651,-2.9211752,-2.312598,0.0009503523,48.948917,0.37435913,0.5410454,0.4052871,0.15474722,0.11025239,inf,inf,inf,inf,1,1,1,1,2,0,2,1,3,1,1,0
646752627,167894030,36.204817999999996,138.25291959999998,0.036455784,-0.21977645,-3.1551056,-0.039897293,0.04249571,0.0,-0.047466524,-0.077046946,-0.03709064,-0.046179198,-0.038354572,0.054698005,-0.03981606,-2.137676,5.3846774,1.3612161,-2.3125248,0.0009503523,48.948917,0.37698555,0.531397,0.401901,0.14851658,0.10826941,inf,inf,inf,inf,1,1,1,1,2,0,2,1,3,1,1,0
646852609,167894030,36.204817999999996,138.25291959999998,0.04354945,-0.21603115,-3.1590114,-0.039897293,0.04249571,0.0,-0.04665375,-0.0907324,-0.05198921,-0.059720106,-0.038354572,0.054698005,-0.03981606,-3.8019304,2.3478444,-0.43475124,-2.3130584,0.0009503523,48.948917,0.38089132,0.5382518,0.40630716,0.15301843,0.10990062,inf,inf,inf,inf,1,1,1,1,2,0,2,1,3,1,1,0
646952590,167894030,36.204817999999996,138.25291959999998,0.047877297,-0.21666306,-3.1629226,-0.039897293,0.04249571,0.0,-0.052601445,-0.08522196,-0.01674577,-0.024710948,-0.038354572,0.054698005,-0.03981606,-3.4232028,5.25464,0.71223456,-2.313304,0.0009503523,48.948917,0.38480258,0.5455225,0.4080824,0.15754591,0.11121067,inf,inf,inf,inf,1,1,1,1,2,0,2,1,3,1,1,0
647052572,167894030,36.204817999999996,138.25291959999998,0.048459463,-0.21143393,-3.1629803,-0.039897293,0.04249571,0.0,-0.03361356,-0.0943806,-0.009360845,-0.015855752,-0.038354572,0.054698005,-0.03981606,4.978356,0.6489992,-1.7993063,-2.3133605,0.0009503523,48.948917,0.38486028,0.5355382,0.40463507,0.1514978,0.109276555,inf,inf,inf,inf,1,1,1,1,2,0,2,1,3,1,1,0
647152554,167894030,36.204817999999996,138.25291959999998,0.047860134,-0.20996653,-3.1630776,-0.039897293,0.04249571,0.0,-0.05130163,-0.101700254,0.0042096833,-0.0023594687,-0.038354572,0.054698005,-0.03981606,-2.033582,-0.31561282,-0.22259495,-2.3126426,0.0009503523,48.948917,0.38495755,0.5263545,0.4013634,0.14581077,0.10739399,inf,inf,inf,inf,1,1,1,1,2,0,2,1,3,1,1,0
647252535,167894030,36.204817999999996,138.25291959999998,0.051772617,-0.20446017,-3.164452,-0.039897293,0.04249571,0.0,-0.047302056,-0.12042488,-0.030944036,-0.0368613,-0.038354572,0.054698005,-0.03981606,2.7322924,-4.0826516,-3.252444,-2.3127627,0.0009503523,48.948917,0.38633204,0.53301644,0.40303853,0.15011184,0.108729795,inf,inf,inf,inf,1,1,1,1,2,0,2,1,3,1,1,0
647352517,167894030,36.204817999999996,138.25291959999998,0.052362178,-0.20304464,-3.1683817,-0.039897293,0.04249571,0.0,-0.0631245,-0.10554605,-0.033641506,-0.038721796,-0.038354572,0.054698005,-0.03981606,0.12381317,2.2126708,2.8563564,-2.3125055,0.0009503523,48.948917,0.39026165,0.52529407,0.40080017,0.14653681,0.10751319,inf,inf,inf,inf,1,1,1,1,2,0,2,1,3,1,1,0
647452498,167894030,36.204817999999996,138.25291959999998,0.050447363,-0.19927073,-3.173063,-0.039897293,0.04249571,0.0,-0.079519235,-0.09623015,-0.04478236,-0.049868185,-0.038354572,0.054698005,-0.03981606,-5.78714,5.3442755,-1.1587121,-2.3126373,0.0009503523,48.948917,0.394943,0.5320279,0.40247643,0.15110068,0.10884466,inf,inf,inf,inf,1,1,1,1,2,0,2,1,3,1,1,0
647552480,167894030,36.204817999999996,138.25291959999998,0.0476741,-0.19908829,-3.177701,-0.039897293,0.04249571,0.0,-0.06175869,-0.119394206,-0.011729158,-0.017415645,-0.038354572,0.054698005,-0.03981606,2.646425,-0.040365968,1.1956177,-2.312061,0.0009503523,48.948917,0.39958096,0.5231661,0.40200746,0.14568684,0.10735206,inf,inf,inf,inf,1,1,1,1,2,0,2,1,3,1,1,0
647652461,167894030,36.204817999999996,138.25291959999998,0.049824223,-0.19226187,-3.181501,-0.039897293,0.04249571,0.0,-0.060419988,-0.11910893,-0.008433228,-0.016192298,-0.038354572,0.054698005,-0.03981606,5.7148232,1.8001702,-0.6224561,-2.3128343,0.0009503523,48.948917,0.40338087,0.5298359,0.40369517,0.15012759,0.10869372,inf,inf,inf,inf,1,1,1,1,2,0,2,1,3,1,1,0
647752443,167894030,36.204817999999996,138.25291959999998,0.04888237,-0.18950716,-3.1859481,-0.039897293,0.04249571,0.0,-0.072549455,-0.13236418,-0.02154229,-0.03188172,-0.038354572,0.054698005,-0.03981606,2.9926941,-6.871747,0.4564864,-2.3126142,0.0009503523,48.948917,0.4078281,0.522153,0.40137777,0.1462369,0.107434064,inf,inf,inf,inf,1,1,1,1,2,0,2,1,3,1,1,0
647852424,167894030,36.204817999999996,138.25291959999998,0.04826444,-0.18484037,-3.1944041,-0.039897293,0.04249571,0.0,-0.07133904,-0.1197941,-0.035223495,-0.04916111,-0.038354572,0.054698005,-0.03981606,-1.0689636,0.58956623,2.0921347,-2.3134282,0.0009503523,48.948917,0.41628408,0.5288818,0.40307444,0.15065117,0.108776756,inf,inf,inf,inf,1,1,1,1,2,0,2,1,3,1,1,0
647952425,167894030,36.204817999999996,138.25291959999998,0.04675366,-0.1845986,-3.2010932,-0.039897293,0.04249571,0.0,-0.08726463,-0.11061816,-0.0048934873,-0.020639228,-0.038354572,0.054698005,-0.03981606,-9.036749,3.8404949,3.6248631,-2.313979,0.0009503523,48.948917,0.42297316,0.5216261,0.401069,0.14740865,0.107707515,inf,inf,inf,inf,1,1,1,1,2,0,2,1,3,1,1,0
648052404,167894030,36.204817999999996,138.25291959999998,0.04668348,-0.18022507,-3.2048512,-0.039897293,0.04249571,0.0,-0.07028697,-0.11657095,-0.027926372,-0.043791845,-0.038354572,0.054698005,-0.03981606,-2.3319042,3.151746,-1.7592146,-2.314767,0.0009503523,48.948917,0.4267311,0.5284623,0.40277243,0.15188944,0.1090459,inf,inf,inf,inf,1,1,1,1,2,0,2,1,3,1,1,0
